"pp","trial","block","block.trial","ease","sa","bias","fix.dur","stim","resp","correct","rt"
"1",1,6,1,2,1,"no",0.738,"R","R",1,0.482
"1",2,6,2,1,1,"no",0.784,"R","R",1,0.602
"1",3,6,3,1,1,"no",0.651,"R","R",1,0.381
"1",4,6,4,1,1,"no",0.781,"R","R",1,0.584
"1",5,6,5,1,1,"no",0.585,"L","R",0,0.464
"1",6,6,6,2,1,"no",0.988,"R","R",1,0.553
"1",7,6,7,2,1,"no",0.68,"R","R",1,0.5
"1",8,6,8,2,1,"no",0.761,"L","L",1,0.364
"1",9,6,9,2,1,"no",0.674,"L","L",1,0.411
"1",10,6,10,2,1,"no",0.515,"L","L",1,0.448
"1",11,6,11,1,1,"no",0.531,"L","L",1,0.428
"1",12,6,12,1,1,"no",0.913,"L","L",1,0.465
"1",13,6,13,2,1,"no",0.794,"L","L",1,0.654
"1",14,6,14,1,1,"no",0.943,"R","L",0,0.342
"1",15,6,15,1,1,"no",0.852,"L","R",0,0.482
"1",16,6,16,2,1,"no",0.815,"L","L",1,0.563
"1",17,6,17,1,1,"no",0.673,"R","R",1,0.858
"1",18,6,18,2,1,"no",0.911,"L","R",0,0.84
"1",19,6,19,2,1,"no",0.892,"R","R",1,0.719
"1",20,6,20,1,1,"no",0.624,"L","R",0,0.411
"1",21,6,21,2,1,"no",0.567,"L","L",1,0.427
"1",22,6,22,2,1,"no",0.935,"R","L",0,0.327
"1",23,6,23,1,1,"no",0.675,"L","L",1,0.445
"1",24,6,24,2,1,"no",0.874,"R","R",1,0.332
"1",25,6,25,2,1,"no",0.542,"R","R",1,0.529
"1",26,6,26,1,1,"no",0.871,"R","L",0,0.513
"1",27,6,27,1,1,"no",0.965,"L","R",0,0.293
"1",28,6,28,2,1,"no",0.739,"R","L",0,0.481
"1",29,6,29,2,1,"no",0.589,"R","L",0,0.378
"1",30,6,30,2,1,"no",0.587,"L","L",1,0.375
"1",31,6,31,2,1,"no",0.895,"L","L",1,0.5
"1",32,6,32,1,1,"no",0.63,"L","L",1,0.376
"1",33,6,33,1,1,"no",0.57,"L","L",1,0.479
"1",34,6,34,1,1,"no",0.622,"R","L",0,0.38
"1",35,6,35,2,1,"no",0.884,"R","L",0,0.309
"1",36,6,36,1,1,"no",0.637,"L","R",0,0.258
"1",37,6,37,1,1,"no",0.769,"L","L",1,0.359
"1",38,6,38,1,1,"no",0.947,"L","L",1,0.227
"1",39,6,39,2,1,"no",0.894,"L","R",0,0.314
"1",40,6,40,1,1,"no",0.912,"R","L",0,0.261
"1",41,6,41,1,1,"no",0.582,"R","L",0,0.463
"1",42,6,42,2,1,"no",0.951,"R","L",0,0.241
"1",43,6,43,1,1,"no",0.842,"L","L",1,0.264
"1",44,6,44,1,1,"no",0.652,"L","R",0,0.361
"1",45,6,45,2,1,"no",0.557,"R","L",0,0.479
"1",46,6,46,1,1,"no",0.831,"L","R",0,0.258
"1",47,6,47,2,1,"no",0.958,"R","R",1,0.311
"1",48,6,48,2,1,"no",0.518,"L","R",0,0.531
"1",49,6,49,1,1,"no",0.68,"L","R",0,0.48
"1",50,6,50,1,1,"no",0.901,"R","R",1,0.275
"1",51,6,51,2,1,"no",0.806,"L","R",0,0.402
"1",52,6,52,1,1,"no",0.91,"R","R",1,0.325
"1",53,6,53,1,1,"no",0.512,"L","L",1,0.418
"1",54,6,54,1,1,"no",0.878,"R","L",0,0.359
"1",55,6,55,2,1,"no",0.867,"L","R",0,0.28
"1",56,6,56,1,1,"no",0.687,"L","L",1,0.466
"1",57,6,57,2,1,"no",0.704,"R","R",1,0.431
"1",58,6,58,2,1,"no",0.507,"L","R",0,0.555
"1",59,6,59,1,1,"no",0.531,"R","L",0,0.567
"1",60,6,60,2,1,"no",0.637,"R","R",1,0.479
"1",61,6,61,2,1,"no",0.907,"L","L",1,0.737
"1",62,6,62,2,1,"no",0.909,"L","R",0,0.55
"1",63,6,63,2,1,"no",0.713,"L","L",1,0.653
"1",64,6,64,1,1,"no",0.843,"L","L",1,0.411
"1",65,6,65,2,1,"no",0.518,"R","R",1,0.756
"1",66,6,66,1,1,"no",0.897,"R","R",1,0.701
"1",67,6,67,2,1,"no",0.805,"R","L",0,0.556
"1",68,6,68,1,1,"no",0.809,"R","L",0,0.367
"1",69,6,69,2,1,"no",0.889,"R","R",1,0.275
"1",70,6,70,1,1,"no",0.85,"L","L",1,0.275
"1",71,6,71,1,1,"no",0.669,"R","L",0,0.449
"1",72,6,72,2,1,"no",0.983,"R","R",1,0.409
"1",73,6,73,2,1,"no",0.618,"L","R",0,0.581
"1",74,6,74,2,1,"no",0.985,"R","R",1,0.417
"1",75,6,75,1,1,"no",0.991,"R","R",1,0.343
"1",76,6,76,1,1,"no",0.99,"R","L",0,0.31
"1",77,6,77,1,1,"no",0.875,"L","R",0,0.275
"1",78,6,78,2,1,"no",0.733,"R","R",1,0.263
"1",79,6,79,1,1,"no",0.94,"L","R",0,0.262
"1",80,6,80,2,1,"no",0.998,"R","R",1,0.245
"1",81,6,81,2,1,"no",0.824,"L","R",0,0.376
"1",82,6,82,2,1,"no",0.617,"L","L",1,0.5
"1",83,6,83,1,1,"no",0.911,"L","R",0,0.309
"1",84,6,84,2,1,"no",0.509,"L","R",0,0.584
"1",85,6,85,2,1,"no",0.801,"R","L",0,0.48
"1",86,6,86,1,1,"no",0.58,"L","L",1,0.979
"1",87,6,87,1,1,"no",0.636,"L","R",0,0.773
"1",88,6,88,2,1,"no",0.688,"R","L",0,0.445
"1",89,6,89,2,1,"no",0.586,"L","L",1,0.413
"1",90,6,90,1,1,"no",0.921,"R","R",1,0.571
"1",91,6,91,1,1,"no",0.864,"L","L",1,0.394
"1",92,6,92,1,1,"no",0.949,"R","R",1,0.418
"1",93,6,93,1,1,"no",0.703,"L","L",1,0.514
"1",94,6,94,1,1,"no",0.868,"R","R",1,0.585
"1",95,6,95,1,1,"no",0.837,"R","R",1,0.552
"1",96,6,96,2,1,"no",0.655,"R","R",1,0.719
"1",97,6,97,1,1,"no",0.994,"L","L",1,0.771
"1",98,6,98,2,1,"no",0.883,"R","L",0,0.241
"1",99,6,99,2,1,"no",0.796,"R","L",0,0.342
"1",100,6,100,2,1,"no",0.627,"R","R",1,0.513
"1",101,6,101,1,1,"no",0.652,"R","R",1,0.513
"1",102,6,102,2,1,"no",0.77,"R","L",0,0.4
"1",103,6,103,1,1,"no",0.683,"L","R",0,0.376
"1",104,6,104,1,1,"no",0.754,"R","R",1,0.449
"1",105,6,105,1,1,"no",0.943,"R","R",1,0.31
"1",106,6,106,2,1,"no",0.863,"L","R",0,0.551
"1",107,6,107,2,1,"no",0.685,"L","L",1,0.414
"1",108,6,108,2,1,"no",0.871,"R","L",0,0.428
"1",109,6,109,2,1,"no",0.874,"L","L",1,0.445
"1",110,6,110,2,1,"no",0.589,"R","L",0,0.294
"1",111,6,111,2,1,"no",0.732,"R","R",1,0.359
"1",112,6,112,1,1,"no",0.552,"R","L",0,0.308
"1",113,6,113,1,1,"no",0.937,"L","R",0,0.292
"1",114,6,114,2,1,"no",0.953,"L","R",0,0.499
"1",115,6,115,2,1,"no",0.948,"R","R",1,0.241
"1",116,6,116,1,1,"no",0.845,"R","L",0,0.258
"1",117,6,117,1,1,"no",0.726,"L","R",0,0.21
"1",118,6,118,1,1,"no",0.971,"L","R",0,0.38
"1",119,6,119,1,1,"no",0.901,"R","R",1,0.189
"1",120,6,120,2,1,"no",0.743,"L","R",0,0.428
"1",121,6,121,1,1,"no",0.994,"R","R",1,0.631
"1",122,6,122,2,1,"no",0.819,"L","R",0,0.309
"1",123,6,123,2,1,"no",0.556,"L","L",1,0.401
"1",124,6,124,1,1,"no",0.955,"R","L",0,0.464
"1",125,6,125,1,1,"no",0.55,"L","L",1,0.515
"1",126,6,126,2,1,"no",0.918,"R","R",1,0.721
"1",127,6,127,2,1,"no",0.865,"L","L",1,0.463
"1",128,6,128,1,1,"no",0.784,"R","R",1,0.315
"1",129,6,129,2,1,"no",0.641,"L","L",1,0.45
"1",130,6,130,2,1,"no",0.749,"R","R",1,0.364
"1",131,6,131,1,1,"no",0.982,"R","R",1,0.394
"1",132,6,132,2,1,"no",0.812,"L","L",1,0.428
"1",133,6,133,1,1,"no",0.741,"L","L",1,0.397
"1",134,6,134,1,1,"no",0.794,"L","R",0,0.615
"1",135,6,135,1,1,"no",0.573,"R","L",0,0.47
"1",136,6,136,2,1,"no",0.911,"L","L",1,0.652
"1",137,6,137,1,1,"no",0.691,"R","R",1,0.55
"1",138,6,138,2,1,"no",0.931,"L","R",0,0.449
"1",139,6,139,1,1,"no",0.722,"L","L",1,0.532
"1",140,6,140,1,1,"no",0.739,"L","L",1,0.685
"1",141,6,141,2,1,"no",0.941,"L","L",1,0.567
"1",142,6,142,2,1,"no",0.909,"R","R",1,0.463
"1",143,6,143,2,1,"no",0.755,"R","R",1,0.466
"1",144,6,144,2,1,"no",0.51,"R","R",1,0.587
"1",145,6,145,2,1,"no",0.956,"L","R",0,0.448
"1",146,6,146,2,1,"no",0.829,"L","L",1,0.754
"1",147,6,147,2,1,"no",0.944,"L","R",0,0.568
"1",148,6,148,1,1,"no",0.698,"R","L",0,0.462
"1",149,6,149,1,1,"no",0.964,"R","L",0,0.411
"1",150,6,150,1,1,"no",0.759,"R","R",1,0.536
"1",151,6,151,1,1,"no",0.543,"R","L",0,0.479
"1",152,6,152,2,1,"no",0.963,"L","R",0,0.462
"1",153,6,153,1,1,"no",0.893,"L","R",0,0.556
"1",154,6,154,1,1,"no",0.973,"L","R",0,0.548
"1",155,6,155,2,1,"no",0.636,"R","R",1,0.563
"1",156,6,156,1,1,"no",0.555,"R","R",1,0.635
"1",157,7,1,1,2,"no",0.543,"R","R",1,1
"1",158,7,2,1,2,"no",0.967,"L","L",1,0.737
"1",159,7,3,2,2,"no",0.971,"L","R",0,0.732
"1",160,7,4,1,2,"no",0.759,"R","R",1,0.635
"1",161,7,5,2,2,"no",0.625,"R","R",1,1.099
"1",162,7,6,2,2,"no",0.679,"R","R",1,0.788
"1",163,7,7,1,2,"no",0.784,"R","R",1,1.219
"1",164,7,8,2,2,"no",0.805,"R","R",1,1.063
"1",165,7,9,1,2,"no",0.625,"L","L",1,1.676
"1",166,7,10,2,2,"no",0.545,"R","R",1,0.909
"1",167,7,11,2,2,"no",0.821,"L","L",1,0.587
"1",168,7,12,2,2,"no",0.773,"R","R",1,1.389
"1",169,7,13,1,2,"no",0.55,"R","L",0,1.527
"1",170,7,14,2,2,"no",0.703,"R","R",1,0.667
"1",171,7,15,2,2,"no",0.832,"R","L",0,1.046
"1",172,7,16,1,2,"no",0.995,"L","L",1,1.212
"1",173,7,17,1,2,"no",0.705,"L","L",1,0.944
"1",174,7,18,2,2,"no",0.941,"L","R",0,1.215
"1",175,7,19,2,2,"no",0.676,"R","R",1,0.635
"1",176,7,20,2,2,"no",0.855,"L","L",1,0.684
"1",177,7,21,1,2,"no",0.906,"R","R",1,0.548
"1",178,7,22,1,2,"no",0.985,"R","L",0,0.77
"1",179,7,23,2,2,"no",0.735,"R","R",1,1.109
"1",180,7,24,1,2,"no",0.907,"L","L",1,0.998
"1",181,7,25,2,2,"no",0.602,"R","R",1,1.061
"1",182,7,26,1,2,"no",0.706,"R","R",1,1.524
"1",183,7,27,1,2,"no",0.517,"R","R",1,1.236
"1",184,7,28,2,2,"no",0.631,"L","L",1,0.839
"1",185,7,29,1,2,"no",0.963,"R","R",1,1.026
"1",186,7,30,1,2,"no",0.976,"L","R",0,1.564
"1",187,7,31,2,2,"no",0.648,"L","L",1,0.922
"1",188,7,32,1,2,"no",0.967,"L","L",1,1.232
"1",189,7,33,1,2,"no",0.618,"L","L",1,1.404
"1",190,7,34,1,2,"no",0.56,"R","R",1,1.437
"1",191,7,35,2,2,"no",0.942,"L","L",1,0.758
"1",192,7,36,2,2,"no",0.964,"R","R",1,0.718
"1",193,7,37,1,2,"no",0.648,"L","L",1,0.822
"1",194,7,38,2,2,"no",0.648,"R","R",1,1.096
"1",195,7,39,2,2,"no",0.98,"R","R",1,1.814
"1",196,7,40,2,2,"no",0.861,"L","L",1,0.808
"1",197,7,41,1,2,"no",0.701,"R","R",1,1.741
"1",198,7,42,1,2,"no",0.859,"L","L",1,0.905
"1",199,7,43,1,2,"no",0.847,"L","R",0,1.489
"1",200,7,44,2,2,"no",0.603,"R","R",1,0.699
"1",201,7,45,1,2,"no",0.949,"R","L",0,1.075
"1",202,7,46,1,2,"no",0.655,"R","R",1,1.047
"1",203,7,47,1,2,"no",0.711,"R","R",1,1.059
"1",204,7,48,2,2,"no",0.628,"R","R",1,1.318
"1",205,7,49,2,2,"no",0.744,"R","R",1,1.114
"1",206,7,50,2,2,"no",0.686,"L","L",1,0.947
"1",207,7,51,2,2,"no",0.695,"L","L",1,1.386
"1",208,7,52,1,2,"no",0.544,"R","R",1,1.452
"1",209,7,53,2,2,"no",0.559,"L","R",0,1.387
"1",210,7,54,1,2,"no",0.546,"R","R",1,1.168
"1",211,7,55,1,2,"no",0.661,"L","L",1,1.504
"1",212,7,56,1,2,"no",0.947,"R","L",0,1.779
"1",213,7,57,1,2,"no",0.911,"R","R",1,0.888
"1",214,7,58,2,2,"no",0.634,"R","R",1,1.114
"1",215,7,59,1,2,"no",0.939,"L","L",1,1.094
"1",216,7,60,1,2,"no",0.889,"R","R",1,0.959
"1",217,7,61,1,2,"no",0.924,"R","R",1,1.094
"1",218,7,62,1,2,"no",0.902,"L","L",1,1.146
"1",219,7,63,1,2,"no",0.591,"R","L",0,2.36
"1",220,7,64,2,2,"no",0.852,"L","L",1,0.718
"1",221,7,65,1,2,"no",0.822,"R","R",1,1.559
"1",222,7,66,1,2,"no",0.572,"L","L",1,1.589
"1",223,7,67,2,2,"no",0.958,"R","R",1,1.182
"1",224,7,68,1,2,"no",0.737,"L","L",1,1.846
"1",225,7,69,2,2,"no",0.513,"R","R",1,0.84
"1",226,7,70,2,2,"no",0.659,"R","L",0,1.334
"1",227,7,71,2,2,"no",0.924,"R","R",1,0.667
"1",228,7,72,1,2,"no",0.935,"L","L",1,1.181
"1",229,7,73,2,2,"no",0.767,"R","R",1,0.757
"1",230,7,74,2,2,"no",0.72,"L","L",1,0.909
"1",231,7,75,1,2,"no",0.566,"R","R",1,0.912
"1",232,7,76,1,2,"no",0.664,"R","R",1,1.81
"1",233,7,77,1,2,"no",0.775,"L","L",1,1.031
"1",234,7,78,2,2,"no",0.642,"L","L",1,1.029
"1",235,7,79,1,2,"no",0.91,"L","L",1,1.097
"1",236,7,80,1,2,"no",0.988,"L","L",1,0.957
"1",237,7,81,2,2,"no",0.779,"L","L",1,1.117
"1",238,7,82,2,2,"no",0.688,"L","L",1,1.012
"1",239,7,83,1,2,"no",0.527,"L","R",0,1.73
"1",240,7,84,1,2,"no",0.576,"L","L",1,0.912
"1",241,7,85,1,2,"no",0.893,"R","R",1,1.115
"1",242,7,86,2,2,"no",0.835,"L","L",1,0.756
"1",243,7,87,1,2,"no",0.54,"L","L",1,1.013
"1",244,7,88,1,2,"no",0.5,"R","R",1,1.71
"1",245,7,89,2,2,"no",0.984,"L","L",1,0.974
"1",246,7,90,2,2,"no",0.537,"L","R",0,1.987
"1",247,7,91,2,2,"no",0.837,"L","L",1,0.906
"1",248,7,92,1,2,"no",0.572,"L","L",1,0.975
"1",249,7,93,2,2,"no",0.635,"L","L",1,0.975
"1",250,7,94,1,2,"no",0.619,"R","R",1,0.906
"1",251,7,95,2,2,"no",0.632,"L","L",1,0.771
"1",252,7,96,2,2,"no",0.926,"L","L",1,0.812
"1",253,7,97,1,2,"no",0.522,"R","R",1,0.856
"1",254,7,98,2,2,"no",0.507,"R","R",1,1.386
"1",255,7,99,2,2,"no",0.654,"R","L",0,1.027
"1",256,7,100,1,2,"no",0.914,"R","R",1,0.856
"1",257,7,101,2,2,"no",0.664,"L","L",1,0.721
"1",258,7,102,2,2,"no",0.695,"R","R",1,0.754
"1",259,7,103,2,2,"no",0.858,"R","R",1,1.677
"1",260,7,104,2,2,"no",0.548,"L","L",1,0.702
"1",261,7,105,1,2,"no",0.839,"L","L",1,1.54
"1",262,7,106,1,2,"no",0.78,"L","L",1,0.774
"1",263,7,107,2,2,"no",0.86,"L","L",1,0.84
"1",264,7,108,2,2,"no",0.544,"L","L",1,1.196
"1",265,7,109,1,2,"no",0.743,"L","L",1,1.934
"1",266,7,110,1,2,"no",0.981,"R","R",1,1.697
"1",267,7,111,1,2,"no",0.622,"L","R",0,1.063
"1",268,7,112,2,2,"no",0.934,"R","R",1,1.321
"1",269,7,113,2,2,"no",0.779,"L","L",1,0.669
"1",270,7,114,1,2,"no",0.62,"R","R",1,0.809
"1",271,7,115,2,2,"no",0.868,"R","R",1,1.268
"1",272,7,116,1,2,"no",0.581,"L","L",1,0.808
"1",273,7,117,1,2,"no",0.661,"R","R",1,0.828
"1",274,7,118,2,2,"no",0.698,"R","R",1,0.856
"1",275,7,119,2,2,"no",0.986,"L","L",1,0.735
"1",276,7,120,2,2,"no",0.796,"L","L",1,0.831
"1",277,7,121,1,2,"no",0.544,"L","R",0,1.557
"1",278,7,122,2,2,"no",0.613,"L","L",1,0.659
"1",279,7,123,2,2,"no",0.9,"R","R",1,0.649
"1",280,7,124,1,2,"no",0.744,"L","L",1,1.455
"1",281,7,125,2,2,"no",0.534,"R","R",1,0.874
"1",282,7,126,1,2,"no",0.859,"L","L",1,1.283
"1",283,7,127,2,2,"no",0.627,"L","L",1,0.994
"1",284,7,128,2,2,"no",0.535,"L","L",1,1.059
"1",285,7,129,1,2,"no",0.644,"R","R",1,0.975
"1",286,7,130,2,2,"no",0.655,"L","L",1,0.946
"1",287,7,131,2,2,"no",0.695,"R","R",1,0.855
"1",288,7,132,2,2,"no",0.73,"R","R",1,1.423
"1",289,7,133,2,2,"no",0.758,"R","R",1,1.542
"1",290,7,134,2,2,"no",0.58,"R","R",1,1.711
"1",291,7,135,1,2,"no",0.88,"R","R",1,0.978
"1",292,7,136,1,2,"no",0.587,"R","R",1,1.195
"1",293,7,137,2,2,"no",0.685,"L","L",1,0.669
"1",294,7,138,1,2,"no",0.916,"R","L",0,2.019
"1",295,7,139,1,2,"no",0.747,"L","R",0,1.489
"1",296,7,140,1,2,"no",0.533,"L","L",1,1.144
"1",297,7,141,2,2,"no",0.932,"R","R",1,0.977
"1",298,7,142,1,2,"no",0.61,"L","L",1,1.32
"1",299,7,143,1,2,"no",0.855,"L","R",0,0.977
"1",300,7,144,1,2,"no",0.652,"R","R",1,1.096
"1",301,7,145,2,2,"no",0.727,"L","L",1,0.757
"1",302,7,146,1,2,"no",0.871,"R","R",1,1.128
"1",303,7,147,1,2,"no",0.817,"L","L",1,1.009
"1",304,7,148,2,2,"no",0.687,"R","R",1,0.809
"1",305,7,149,2,2,"no",0.943,"L","L",1,0.941
"1",306,7,150,2,2,"no",0.547,"L","L",1,0.926
"1",307,7,151,2,2,"no",0.785,"L","L",1,1.008
"1",308,7,152,2,2,"no",0.855,"R","R",1,0.706
"1",309,7,153,1,2,"no",0.757,"R","R",1,1.289
"1",310,7,154,1,2,"no",0.616,"L","L",1,0.727
"1",311,7,155,1,2,"no",0.987,"L","L",1,0.719
"1",312,7,156,2,2,"no",0.944,"R","R",1,1.339
"1",313,8,1,2,1,"no",0.861,"L","L",1,0.451
"1",314,8,2,2,1,"no",0.645,"R","R",1,0.534
"1",315,8,3,2,1,"no",0.911,"L","L",1,0.466
"1",316,8,4,1,1,"no",0.678,"R","R",1,0.513
"1",317,8,5,2,1,"no",0.998,"R","R",1,0.687
"1",318,8,6,1,1,"no",0.829,"R","R",1,0.568
"1",319,8,7,2,1,"no",0.532,"R","R",1,0.565
"1",320,8,8,2,1,"no",0.689,"R","R",1,0.396
"1",321,8,9,2,1,"no",0.971,"L","L",1,0.449
"1",322,8,10,1,1,"no",0.84,"R","R",1,0.48
"1",323,8,11,1,1,"no",0.836,"L","L",1,0.513
"1",324,8,12,1,1,"no",0.836,"R","R",1,0.687
"1",325,8,13,1,1,"no",0.58,"R","R",1,0.757
"1",326,8,14,1,1,"no",0.97,"R","R",1,0.479
"1",327,8,15,1,1,"no",0.687,"L","L",1,0.548
"1",328,8,16,2,1,"no",0.921,"R","R",1,0.706
"1",329,8,17,2,1,"no",0.926,"R","R",1,0.671
"1",330,8,18,1,1,"no",0.884,"R","R",1,0.721
"1",331,8,19,1,1,"no",0.747,"L","L",1,0.718
"1",332,8,20,1,1,"no",0.942,"L","L",1,0.651
"1",333,8,21,1,1,"no",0.547,"L","L",1,0.553
"1",334,8,22,1,1,"no",0.954,"L","L",1,0.588
"1",335,8,23,1,1,"no",0.532,"L","L",1,0.719
"1",336,8,24,2,1,"no",0.773,"L","L",1,0.554
"1",337,8,25,1,1,"no",0.656,"L","L",1,0.94
"1",338,8,26,2,1,"no",0.702,"L","L",1,0.805
"1",339,8,27,2,1,"no",0.908,"R","R",1,0.517
"1",340,8,28,1,1,"no",0.861,"L","L",1,0.722
"1",341,8,29,2,1,"no",0.597,"L","R",0,0.401
"1",342,8,30,1,1,"no",0.903,"R","L",0,0.607
"1",343,8,31,1,1,"no",0.809,"L","L",1,0.462
"1",344,8,32,2,1,"no",0.888,"L","L",1,0.397
"1",345,8,33,1,1,"no",0.72,"R","L",0,0.482
"1",346,8,34,1,1,"no",0.62,"R","R",1,0.52
"1",347,8,35,1,1,"no",0.919,"R","R",1,0.428
"1",348,8,36,2,1,"no",0.517,"L","R",0,0.445
"1",349,8,37,2,1,"no",0.784,"L","R",0,0.445
"1",350,8,38,1,1,"no",0.908,"L","L",1,0.532
"1",351,8,39,2,1,"no",0.676,"L","L",1,0.569
"1",352,8,40,1,1,"no",0.637,"L","L",1,0.616
"1",353,8,41,2,1,"no",0.786,"L","L",1,0.367
"1",354,8,42,1,1,"no",0.858,"L","L",1,0.359
"1",355,8,43,1,1,"no",0.91,"L","L",1,0.411
"1",356,8,44,1,1,"no",0.542,"L","L",1,0.411
"1",357,8,45,2,1,"no",0.885,"L","L",1,0.344
"1",358,8,46,1,1,"no",0.925,"R","R",1,0.856
"1",359,8,47,2,1,"no",0.634,"L","R",0,0.428
"1",360,8,48,2,1,"no",0.591,"R","R",1,0.519
"1",361,8,49,2,1,"no",0.895,"R","L",0,0.428
"1",362,8,50,1,1,"no",0.926,"L","L",1,0.501
"1",363,8,51,2,1,"no",0.929,"L","L",1,0.618
"1",364,8,52,2,1,"no",0.546,"L","L",1,0.48
"1",365,8,53,1,1,"no",0.92,"L","R",0,0.515
"1",366,8,54,2,1,"no",0.686,"L","L",1,0.433
"1",367,8,55,2,1,"no",0.924,"L","L",1,0.258
"1",368,8,56,1,1,"no",0.704,"R","L",0,0.381
"1",369,8,57,2,1,"no",0.587,"R","R",1,0.364
"1",370,8,58,1,1,"no",0.679,"L","R",0,0.415
"1",371,8,59,2,1,"no",0.863,"L","R",0,0.325
"1",372,8,60,1,1,"no",0.507,"L","R",0,0.431
"1",373,8,61,2,1,"no",0.843,"R","R",1,0.377
"1",374,8,62,2,1,"no",0.737,"L","R",0,0.463
"1",375,8,63,1,1,"no",0.847,"R","R",1,0.448
"1",376,8,64,2,1,"no",0.723,"R","R",1,0.292
"1",377,8,65,1,1,"no",0.512,"L","R",0,0.38
"1",378,8,66,2,1,"no",0.516,"R","R",1,0.462
"1",379,8,67,1,1,"no",0.543,"R","R",1,0.378
"1",380,8,68,1,1,"no",0.863,"L","R",0,0.344
"1",381,8,69,1,1,"no",0.576,"R","R",1,0.465
"1",382,8,70,2,1,"no",0.867,"R","L",0,0.394
"1",383,8,71,2,1,"no",0.925,"L","R",0,0.449
"1",384,8,72,2,1,"no",0.581,"L","L",1,0.567
"1",385,8,73,1,1,"no",0.636,"L","R",0,0.634
"1",386,8,74,2,1,"no",0.515,"L","L",1,0.568
"1",387,8,75,2,1,"no",0.83,"L","L",1,0.497
"1",388,8,76,2,1,"no",0.815,"R","R",1,0.465
"1",389,8,77,1,1,"no",0.743,"R","R",1,0.62
"1",390,8,78,1,1,"no",0.777,"L","L",1,0.69
"1",391,8,79,2,1,"no",0.681,"R","L",0,0.414
"1",392,8,80,2,1,"no",0.869,"L","R",0,0.241
"1",393,8,81,1,1,"no",0.668,"L","L",1,0.55
"1",394,8,82,2,1,"no",0.921,"R","R",1,0.601
"1",395,8,83,2,1,"no",0.645,"R","R",1,0.669
"1",396,8,84,1,1,"no",0.671,"R","R",1,0.517
"1",397,8,85,1,1,"no",0.857,"R","R",1,0.308
"1",398,8,86,1,1,"no",0.82,"R","R",1,0.325
"1",399,8,87,2,1,"no",0.834,"R","R",1,0.292
"1",400,8,88,1,1,"no",0.713,"R","R",1,0.325
"1",401,8,89,2,1,"no",0.956,"L","L",1,0.563
"1",402,8,90,2,1,"no",0.585,"L","L",1,0.446
"1",403,8,91,1,1,"no",0.865,"L","L",1,0.344
"1",404,8,92,1,1,"no",0.663,"R","L",0,0.362
"1",405,8,93,1,1,"no",0.86,"L","L",1,0.327
"1",406,8,94,1,1,"no",0.761,"L","L",1,0.346
"1",407,8,95,1,1,"no",0.866,"R","R",1,0.667
"1",408,8,96,1,1,"no",0.973,"R","R",1,0.279
"1",409,8,97,2,1,"no",0.863,"R","L",0,0.479
"1",410,8,98,1,1,"no",0.68,"L","L",1,0.258
"1",411,8,99,2,1,"no",0.624,"R","R",1,0.497
"1",412,8,100,2,1,"no",0.695,"R","L",0,0.345
"1",413,8,101,2,1,"no",0.626,"R","R",1,0.414
"1",414,8,102,2,1,"no",0.85,"L","R",0,0.428
"1",415,8,103,1,1,"no",0.533,"R","R",1,0.622
"1",416,8,104,2,1,"no",0.917,"R","L",0,0.429
"1",417,8,105,2,1,"no",0.653,"R","R",1,0.585
"1",418,8,106,2,1,"no",0.921,"R","R",1,0.565
"1",419,8,107,2,1,"no",0.709,"R","R",1,0.653
"1",420,8,108,2,1,"no",0.571,"L","R",0,0.416
"1",421,8,109,1,1,"no",0.751,"R","R",1,0.463
"1",422,8,110,2,1,"no",0.821,"R","R",1,0.482
"1",423,8,111,1,1,"no",0.893,"R","L",0,0.446
"1",424,8,112,2,1,"no",0.9,"L","L",1,0.445
"1",425,8,113,1,1,"no",0.733,"L","R",0,0.449
"1",426,8,114,1,1,"no",1,"R","R",1,0.381
"1",427,8,115,1,1,"no",0.871,"R","R",1,0.363
"1",428,8,116,2,1,"no",0.692,"L","R",0,0.432
"1",429,8,117,1,1,"no",0.884,"L","L",1,0.428
"1",430,8,118,1,1,"no",0.915,"L","R",0,0.308
"1",431,8,119,1,1,"no",0.593,"L","L",1,0.582
"1",432,8,120,2,1,"no",0.865,"R","L",0,0.429
"1",433,8,121,1,1,"no",0.535,"R","R",1,0.446
"1",434,8,122,1,1,"no",0.984,"L","L",1,0.651
"1",435,8,123,1,1,"no",0.611,"R","R",1,0.385
"1",436,8,124,2,1,"no",0.787,"R","R",1,0.4
"1",437,8,125,1,1,"no",0.978,"R","L",0,0.45
"1",438,8,126,2,1,"no",0.778,"R","R",1,0.484
"1",439,8,127,2,1,"no",0.82,"L","L",1,0.546
"1",440,8,128,1,1,"no",0.887,"R","R",1,0.376
"1",441,8,129,1,1,"no",0.664,"R","L",0,0.366
"1",442,8,130,2,1,"no",0.574,"L","R",0,0.364
"1",443,8,131,1,1,"no",0.843,"L","R",0,0.667
"1",444,8,132,2,1,"no",0.604,"L","L",1,0.444
"1",445,8,133,2,1,"no",0.82,"R","R",1,0.308
"1",446,8,134,2,1,"no",0.505,"L","R",0,0.431
"1",447,8,135,1,1,"no",0.667,"L","R",0,0.535
"1",448,8,136,1,1,"no",0.868,"L","L",1,0.381
"1",449,8,137,1,1,"no",0.644,"R","R",1,0.513
"1",450,8,138,1,1,"no",0.607,"L","L",1,0.574
"1",451,8,139,2,1,"no",0.729,"R","R",1,0.445
"1",452,8,140,1,1,"no",0.527,"R","R",1,0.549
"1",453,8,141,2,1,"no",0.867,"R","R",1,0.411
"1",454,8,142,2,1,"no",0.694,"R","R",1,0.414
"1",455,8,143,1,1,"no",0.776,"R","R",1,0.346
"1",456,8,144,2,1,"no",0.829,"L","L",1,0.327
"1",457,8,145,2,1,"no",0.656,"R","R",1,0.397
"1",458,8,146,1,1,"no",0.984,"L","L",1,0.378
"1",459,8,147,2,1,"no",0.747,"L","L",1,0.773
"1",460,8,148,2,1,"no",0.555,"L","L",1,0.498
"1",461,8,149,2,1,"no",0.833,"R","R",1,0.529
"1",462,8,150,1,1,"no",0.793,"R","L",0,0.484
"1",463,8,151,1,1,"no",0.959,"R","R",1,0.342
"1",464,8,152,1,1,"no",0.743,"L","L",1,0.342
"1",465,8,153,2,1,"no",0.781,"L","R",0,0.328
"1",466,8,154,2,1,"no",0.628,"L","L",1,0.552
"1",467,8,155,2,1,"no",0.79,"R","L",0,0.499
"1",468,8,156,2,1,"no",0.951,"R","R",1,0.325
"1",469,9,1,2,1,"left",0.91,"L","L",1,0.411
"1",470,9,2,1,1,"left",0.745,"R","R",1,0.31
"1",471,9,3,1,1,"left",0.972,"L","L",1,0.587
"1",472,9,4,2,1,"left",0.87,"R","L",0,0.5
"1",473,9,5,2,1,"left",0.925,"L","L",1,0.498
"1",474,9,6,2,1,"left",0.621,"L","L",1,0.529
"1",475,9,7,2,1,"left",0.987,"L","L",1,0.445
"1",476,9,8,1,1,"left",0.695,"R","R",1,0.428
"1",477,9,9,1,1,"left",0.967,"R","R",1,0.43
"1",478,9,10,2,1,"left",0.509,"L","R",0,0.621
"1",479,9,11,2,1,"left",0.897,"L","R",0,0.479
"1",480,9,12,1,1,"left",0.638,"L","R",0,0.411
"1",481,9,13,1,1,"left",0.597,"L","R",0,0.519
"1",482,9,14,2,1,"left",0.756,"R","R",1,0.417
"1",483,9,15,1,1,"left",0.887,"R","R",1,0.536
"1",484,9,16,1,1,"left",0.643,"L","L",1,0.398
"1",485,9,17,2,1,"left",0.562,"R","R",1,0.84
"1",486,9,18,1,1,"left",0.848,"L","L",1,0.563
"1",487,9,19,2,1,"left",0.849,"L","R",0,0.394
"1",488,9,20,2,1,"left",0.542,"L","L",1,0.622
"1",489,9,21,1,1,"left",0.712,"L","L",1,0.38
"1",490,9,22,1,1,"left",0.866,"L","R",0,0.497
"1",491,9,23,1,1,"left",0.876,"L","L",1,0.463
"1",492,9,24,2,1,"left",0.759,"R","L",0,0.328
"1",493,9,25,2,1,"left",0.555,"L","R",0,0.479
"1",494,9,26,2,1,"left",0.887,"L","L",1,0.275
"1",495,9,27,2,1,"left",0.759,"R","L",0,0.497
"1",496,9,28,2,1,"left",0.51,"R","L",0,0.532
"1",497,9,29,1,1,"left",0.853,"L","L",1,0.309
"1",498,9,30,2,1,"left",0.759,"L","L",1,0.617
"1",499,9,31,2,1,"left",0.99,"R","R",1,0.395
"1",500,9,32,2,1,"left",0.849,"L","R",0,0.55
"1",501,9,33,2,1,"left",0.774,"L","R",0,0.431
"1",502,9,34,2,1,"left",0.831,"L","L",1,0.632
"1",503,9,35,2,1,"left",0.763,"R","R",1,0.774
"1",504,9,36,1,1,"left",0.69,"L","L",1,0.496
"1",505,9,37,2,1,"left",0.566,"R","R",1,0.587
"1",506,9,38,2,1,"left",0.942,"L","L",1,0.415
"1",507,9,39,1,1,"left",0.572,"L","R",0,0.615
"1",508,9,40,1,1,"left",0.974,"R","R",1,0.55
"1",509,9,41,1,1,"left",0.732,"L","R",0,0.615
"1",510,9,42,2,1,"left",0.666,"L","L",1,0.531
"1",511,9,43,1,1,"left",0.82,"L","L",1,0.553
"1",512,9,44,2,1,"left",0.782,"R","R",1,0.604
"1",513,9,45,1,1,"left",0.661,"R","R",1,0.907
"1",514,9,46,1,1,"left",0.871,"L","R",0,0.434
"1",515,9,47,1,1,"left",0.617,"L","L",1,0.524
"1",516,9,48,1,1,"left",0.69,"L","L",1,0.7
"1",517,9,49,2,1,"left",0.647,"L","R",0,0.485
"1",518,9,50,1,1,"left",0.937,"R","R",1,0.553
"1",519,9,51,1,1,"left",0.963,"R","R",1,0.381
"1",520,9,52,1,1,"left",0.989,"L","R",0,0.308
"1",521,9,53,2,1,"left",0.755,"L","L",1,0.462
"1",522,9,54,2,1,"left",0.775,"L","L",1,0.531
"1",523,9,55,1,1,"left",0.654,"L","L",1,0.431
"1",524,9,56,2,1,"left",0.608,"R","R",1,0.504
"1",525,9,57,1,1,"left",0.695,"R","R",1,0.481
"1",526,9,58,1,1,"left",0.829,"L","R",0,0.376
"1",527,9,59,2,1,"left",0.864,"L","R",0,0.498
"1",528,9,60,1,1,"left",0.616,"L","L",1,0.778
"1",529,9,61,1,1,"left",0.855,"L","R",0,0.465
"1",530,9,62,1,1,"left",0.64,"R","R",1,0.669
"1",531,9,63,2,1,"left",0.774,"L","L",1,0.432
"1",532,9,64,1,1,"left",0.627,"L","L",1,0.482
"1",533,9,65,1,1,"left",0.571,"L","R",0,0.501
"1",534,9,66,1,1,"left",0.504,"R","L",0,0.433
"1",535,9,67,1,1,"left",0.708,"L","R",0,0.419
"1",536,9,68,2,1,"left",0.965,"R","R",1,0.462
"1",537,9,69,2,1,"left",0.998,"L","R",0,0.415
"1",538,9,70,1,1,"left",0.645,"L","L",1,0.517
"1",539,9,71,2,1,"left",0.667,"L","L",1,0.497
"1",540,9,72,2,1,"left",0.831,"R","R",1,0.497
"1",541,9,73,2,1,"left",0.93,"R","R",1,0.632
"1",542,9,74,1,1,"left",0.81,"L","L",1,0.632
"1",543,9,75,2,1,"left",0.586,"L","L",1,0.546
"1",544,9,76,2,1,"left",0.701,"L","L",1,0.481
"1",545,9,77,2,1,"left",0.598,"L","L",1,0.461
"1",546,9,78,1,1,"left",0.916,"R","L",0,0.431
"1",547,9,79,1,1,"left",0.695,"L","L",1,0.497
"1",548,9,80,2,1,"left",0.856,"R","R",1,0.479
"1",549,9,81,2,1,"left",0.786,"R","R",1,0.414
"1",550,9,82,1,1,"left",0.544,"L","L",1,0.585
"1",551,9,83,2,1,"left",0.767,"R","L",0,0.445
"1",552,9,84,2,1,"left",0.925,"R","R",1,0.737
"1",553,9,85,2,1,"left",0.854,"L","L",1,0.598
"1",554,9,86,2,1,"left",0.831,"L","L",1,0.546
"1",555,9,87,1,1,"left",0.616,"L","L",1,0.896
"1",556,9,88,1,1,"left",0.625,"L","L",1,0.429
"1",557,9,89,2,1,"left",0.597,"L","L",1,0.479
"1",558,9,90,1,1,"left",0.635,"L","L",1,0.431
"1",559,9,91,1,1,"left",0.761,"L","R",0,0.449
"1",560,9,92,2,1,"left",0.969,"R","R",1,0.568
"1",561,9,93,1,1,"left",0.523,"L","L",1,0.529
"1",562,9,94,1,1,"left",0.526,"R","R",1,0.585
"1",563,9,95,2,1,"left",0.893,"L","L",1,0.432
"1",564,9,96,2,1,"left",0.737,"R","R",1,0.481
"1",565,9,97,2,1,"left",0.664,"L","L",1,0.412
"1",566,9,98,1,1,"left",0.894,"L","R",0,0.414
"1",567,9,99,1,1,"left",0.809,"R","L",0,0.465
"1",568,9,100,2,1,"left",0.565,"L","L",1,0.871
"1",569,9,101,1,1,"left",0.751,"L","R",0,0.666
"1",570,9,102,1,1,"left",0.661,"R","R",1,0.514
"1",571,9,103,1,1,"left",0.631,"R","L",0,0.635
"1",572,9,104,1,1,"left",0.724,"L","R",0,0.224
"1",573,9,105,2,1,"left",0.659,"L","R",0,0.31
"1",574,9,106,2,1,"left",0.857,"L","R",0,0.5
"1",575,9,107,2,1,"left",0.795,"L","R",0,0.76
"1",576,9,108,2,1,"left",0.792,"L","L",1,0.331
"1",577,9,109,1,1,"left",0.614,"R","R",1,0.771
"1",578,9,110,1,1,"left",0.704,"L","L",1,0.431
"1",579,9,111,2,1,"left",0.58,"L","L",1,0.48
"1",580,9,112,1,1,"left",0.829,"L","R",0,0.787
"1",581,9,113,2,1,"left",0.775,"R","L",0,0.619
"1",582,9,114,2,1,"left",0.616,"R","R",1,0.483
"1",583,9,115,1,1,"left",0.694,"L","R",0,0.602
"1",584,9,116,2,1,"left",0.979,"L","R",0,0.401
"1",585,9,117,2,1,"left",0.7,"L","L",1,0.498
"1",586,9,118,2,1,"left",0.971,"R","R",1,0.395
"1",587,9,119,1,1,"left",0.531,"R","R",1,0.479
"1",588,9,120,2,1,"left",0.833,"L","L",1,0.604
"1",589,9,121,2,1,"left",0.977,"R","R",1,0.445
"1",590,9,122,1,1,"left",0.51,"L","R",0,0.531
"1",591,9,123,1,1,"left",0.508,"R","R",1,0.567
"1",592,9,124,2,1,"left",0.699,"L","R",0,0.38
"1",593,9,125,2,1,"left",0.619,"L","L",1,0.534
"1",594,9,126,1,1,"left",0.943,"L","R",0,0.394
"1",595,9,127,1,1,"left",0.845,"L","R",0,0.428
"1",596,9,128,1,1,"left",0.658,"R","L",0,0.464
"1",597,9,129,1,1,"left",0.995,"R","R",1,0.482
"1",598,9,130,2,1,"left",0.844,"L","L",1,0.548
"1",599,9,131,1,1,"left",0.904,"L","L",1,0.618
"1",600,9,132,1,1,"left",0.712,"L","L",1,0.53
"1",601,9,133,1,1,"left",0.719,"L","L",1,0.428
"1",602,9,134,2,1,"left",0.765,"L","R",0,0.411
"1",603,9,135,1,1,"left",0.888,"L","R",0,0.517
"1",604,9,136,1,1,"left",0.873,"L","R",0,0.398
"1",605,9,137,1,1,"left",0.694,"L","L",1,0.445
"1",606,9,138,2,1,"left",0.66,"R","R",1,0.532
"1",607,9,139,2,1,"left",0.915,"L","R",0,0.311
"1",608,9,140,1,1,"left",0.862,"R","L",0,0.602
"1",609,9,141,2,1,"left",0.788,"L","R",0,0.345
"1",610,9,142,2,1,"left",0.825,"L","L",1,0.615
"1",611,9,143,2,1,"left",0.833,"L","R",0,0.445
"1",612,9,144,1,1,"left",0.563,"R","L",0,0.465
"1",613,9,145,1,1,"left",0.717,"L","R",0,0.345
"1",614,9,146,1,1,"left",0.663,"R","L",0,0.431
"1",615,9,147,2,1,"left",0.539,"L","R",0,0.5
"1",616,9,148,2,1,"left",0.649,"L","L",1,0.431
"1",617,9,149,1,1,"left",0.654,"L","L",1,0.309
"1",618,9,150,1,1,"left",0.799,"L","L",1,0.515
"1",619,9,151,1,1,"left",0.982,"L","R",0,0.273
"1",620,9,152,2,1,"left",0.624,"L","L",1,0.498
"1",621,9,153,2,1,"left",0.69,"L","R",0,0.397
"1",622,9,154,1,1,"left",0.629,"R","R",1,0.671
"1",623,9,155,1,1,"left",0.776,"R","R",1,0.536
"1",624,9,156,2,1,"left",0.671,"R","R",1,0.909
"1",625,10,1,2,2,"left",0.76,"R","R",1,0.685
"1",626,10,2,2,2,"left",0.85,"L","L",1,0.687
"1",627,10,3,2,2,"left",0.704,"L","L",1,0.771
"1",628,10,4,1,2,"left",0.654,"L","R",0,0.604
"1",629,10,5,2,2,"left",0.58,"L","L",1,0.622
"1",630,10,6,1,2,"left",0.687,"R","R",1,0.652
"1",631,10,7,1,2,"left",0.662,"L","R",0,0.944
"1",632,10,8,2,2,"left",0.582,"R","R",1,0.67
"1",633,10,9,2,2,"left",0.692,"R","L",0,0.632
"1",634,10,10,1,2,"left",0.604,"L","R",0,1.165
"1",635,10,11,1,2,"left",0.817,"L","L",1,1.13
"1",636,10,12,1,2,"left",0.639,"L","L",1,0.775
"1",637,10,13,1,2,"left",0.702,"R","R",1,0.866
"1",638,10,14,2,2,"left",0.74,"R","R",1,0.943
"1",639,10,15,1,2,"left",0.961,"L","L",1,1.233
"1",640,10,16,2,2,"left",0.503,"L","L",1,1.097
"1",641,10,17,1,2,"left",0.745,"R","R",1,0.605
"1",642,10,18,2,2,"left",0.674,"L","L",1,0.632
"1",643,10,19,1,2,"left",0.717,"L","L",1,1.046
"1",644,10,20,1,2,"left",0.508,"L","L",1,0.91
"1",645,10,21,1,2,"left",0.695,"R","R",1,0.65
"1",646,10,22,2,2,"left",0.907,"L","L",1,0.735
"1",647,10,23,1,2,"left",0.603,"L","L",1,0.838
"1",648,10,24,2,2,"left",0.502,"L","L",1,0.688
"1",649,10,25,1,2,"left",0.847,"L","L",1,1.419
"1",650,10,26,2,2,"left",0.716,"R","R",1,0.57
"1",651,10,27,1,2,"left",0.888,"L","L",1,0.669
"1",652,10,28,2,2,"left",0.853,"L","L",1,0.649
"1",653,10,29,2,2,"left",0.962,"R","R",1,0.601
"1",654,10,30,1,2,"left",0.782,"L","L",1,1.215
"1",655,10,31,2,2,"left",0.767,"L","L",1,0.992
"1",656,10,32,1,2,"left",0.933,"R","L",0,0.754
"1",657,10,33,2,2,"left",0.616,"R","R",1,0.654
"1",658,10,34,2,2,"left",0.992,"R","L",0,0.667
"1",659,10,35,2,2,"left",0.867,"R","R",1,0.651
"1",660,10,36,2,2,"left",0.83,"L","L",1,0.702
"1",661,10,37,2,2,"left",0.531,"L","L",1,1.011
"1",662,10,38,2,2,"left",0.965,"R","R",1,0.635
"1",663,10,39,1,2,"left",0.962,"L","L",1,0.686
"1",664,10,40,1,2,"left",0.553,"L","L",1,0.77
"1",665,10,41,1,2,"left",0.847,"L","L",1,0.93
"1",666,10,42,2,2,"left",0.949,"R","R",1,0.529
"1",667,10,43,2,2,"left",0.759,"L","L",1,0.635
"1",668,10,44,2,2,"left",0.582,"R","R",1,1.016
"1",669,10,45,1,2,"left",0.914,"L","L",1,0.912
"1",670,10,46,2,2,"left",0.61,"R","R",1,0.795
"1",671,10,47,2,2,"left",0.79,"R","R",1,0.995
"1",672,10,48,2,2,"left",0.61,"R","R",1,0.726
"1",673,10,49,1,2,"left",0.823,"L","L",1,0.685
"1",674,10,50,1,2,"left",0.589,"L","R",0,1.321
"1",675,10,51,1,2,"left",0.828,"R","L",0,1.456
"1",676,10,52,2,2,"left",0.799,"L","L",1,0.895
"1",677,10,53,1,2,"left",0.888,"L","R",0,0.757
"1",678,10,54,1,2,"left",0.821,"L","R",0,0.773
"1",679,10,55,1,2,"left",0.579,"R","R",1,1.064
"1",680,10,56,2,2,"left",0.922,"L","L",1,1.387
"1",681,10,57,2,2,"left",0.806,"R","R",1,0.844
"1",682,10,58,1,2,"left",0.706,"L","L",1,1.13
"1",683,10,59,2,2,"left",0.524,"L","L",1,0.774
"1",684,10,60,2,2,"left",0.849,"L","L",1,0.842
"1",685,10,61,2,2,"left",0.71,"L","L",1,1.061
"1",686,10,62,2,2,"left",0.58,"L","L",1,1.094
"1",687,10,63,1,2,"left",0.774,"L","L",1,1.914
"1",688,10,64,1,2,"left",0.613,"R","R",1,1.152
"1",689,10,65,2,2,"left",0.998,"L","L",1,0.858
"1",690,10,66,2,2,"left",0.839,"L","L",1,0.975
"1",691,10,67,1,2,"left",0.633,"L","L",1,0.94
"1",692,10,68,2,2,"left",0.966,"L","L",1,0.774
"1",693,10,69,1,2,"left",0.623,"R","L",0,2.167
"1",694,10,70,2,2,"left",0.722,"L","L",1,0.702
"1",695,10,71,1,2,"left",0.96,"L","L",1,0.908
"1",696,10,72,1,2,"left",0.938,"R","L",0,0.871
"1",697,10,73,2,2,"left",0.819,"R","R",1,1.486
"1",698,10,74,2,2,"left",0.519,"L","L",1,1.163
"1",699,10,75,2,2,"left",0.605,"L","L",1,0.702
"1",700,10,76,1,2,"left",0.855,"R","R",1,1.008
"1",701,10,77,2,2,"left",0.564,"L","L",1,0.754
"1",702,10,78,1,2,"left",0.816,"R","R",1,0.719
"1",703,10,79,1,2,"left",0.903,"L","L",1,0.856
"1",704,10,80,2,2,"left",0.796,"L","L",1,1.524
"1",705,10,81,2,2,"left",0.699,"R","R",1,0.874
"1",706,10,82,2,2,"left",0.901,"L","L",1,0.974
"1",707,10,83,1,2,"left",0.723,"R","R",1,1.094
"1",708,10,84,1,2,"left",0.603,"R","R",1,1.06
"1",709,10,85,1,2,"left",0.937,"R","R",1,1.336
"1",710,10,86,2,2,"left",0.654,"L","L",1,0.617
"1",711,10,87,1,2,"left",0.644,"L","L",1,1.374
"1",712,10,88,1,2,"left",0.82,"R","R",1,0.943
"1",713,10,89,1,2,"left",0.996,"L","L",1,1.047
"1",714,10,90,1,2,"left",0.595,"L","L",1,0.94
"1",715,10,91,2,2,"left",0.687,"L","L",1,0.873
"1",716,10,92,2,2,"left",0.956,"L","L",1,0.807
"1",717,10,93,1,2,"left",0.765,"L","L",1,0.873
"1",718,10,94,2,2,"left",0.927,"L","L",1,0.787
"1",719,10,95,2,2,"left",0.881,"L","L",1,0.943
"1",720,10,96,2,2,"left",0.592,"L","L",1,0.991
"1",721,10,97,2,2,"left",0.638,"L","L",1,0.942
"1",722,10,98,1,2,"left",0.555,"L","R",0,0.774
"1",723,10,99,2,2,"left",0.933,"L","L",1,0.551
"1",724,10,100,1,2,"left",0.506,"L","L",1,1.779
"1",725,10,101,1,2,"left",0.638,"L","L",1,1.336
"1",726,10,102,1,2,"left",0.636,"R","L",0,1.147
"1",727,10,103,2,2,"left",0.756,"L","L",1,0.582
"1",728,10,104,1,2,"left",0.603,"R","L",0,0.961
"1",729,10,105,2,2,"left",0.925,"R","R",1,0.567
"1",730,10,106,1,2,"left",0.765,"L","L",1,1.207
"1",731,10,107,1,2,"left",0.637,"R","R",1,0.684
"1",732,10,108,1,2,"left",0.644,"L","L",1,1.23
"1",733,10,109,2,2,"left",0.996,"L","L",1,1.511
"1",734,10,110,1,2,"left",0.812,"L","L",1,1.08
"1",735,10,111,1,2,"left",0.637,"L","L",1,2.295
"1",736,10,112,2,2,"left",0.51,"R","R",1,0.808
"1",737,10,113,1,2,"left",0.881,"L","L",1,1.164
"1",738,10,114,1,2,"left",0.519,"R","R",1,1.643
"1",739,10,115,1,2,"left",0.981,"L","R",0,1.269
"1",740,10,116,1,2,"left",0.941,"L","L",1,0.826
"1",741,10,117,2,2,"left",0.822,"L","L",1,1.163
"1",742,10,118,1,2,"left",0.506,"L","R",0,1.404
"1",743,10,119,1,2,"left",0.875,"L","L",1,1.198
"1",744,10,120,2,2,"left",0.973,"L","L",1,0.907
"1",745,10,121,1,2,"left",0.583,"L","L",1,0.978
"1",746,10,122,1,2,"left",0.89,"L","L",1,1.099
"1",747,10,123,1,2,"left",0.769,"R","R",1,1.798
"1",748,10,124,1,2,"left",0.977,"L","L",1,1.985
"1",749,10,125,1,2,"left",0.994,"L","L",1,0.758
"1",750,10,126,2,2,"left",0.825,"L","L",1,0.787
"1",751,10,127,1,2,"left",0.642,"L","L",1,1.78
"1",752,10,128,2,2,"left",0.623,"L","L",1,1.831
"1",753,10,129,2,2,"left",0.577,"R","R",1,0.996
"1",754,10,130,1,2,"left",0.75,"R","R",1,1.541
"1",755,10,131,2,2,"left",0.509,"L","R",0,1.384
"1",756,10,132,2,2,"left",0.745,"L","L",1,2.089
"1",757,10,133,2,2,"left",0.896,"L","L",1,0.996
"1",758,10,134,2,2,"left",0.716,"L","L",1,0.771
"1",759,10,135,1,2,"left",0.828,"R","R",1,1.077
"1",760,10,136,2,2,"left",0.879,"R","R",1,0.878
"1",761,10,137,1,2,"left",0.731,"L","R",0,1.655
"1",762,10,138,1,2,"left",0.956,"L","R",0,1.129
"1",763,10,139,2,2,"left",0.862,"R","L",0,1.026
"1",764,10,140,2,2,"left",0.953,"L","L",1,0.992
"1",765,10,141,1,2,"left",0.842,"R","R",1,1.011
"1",766,10,142,2,2,"left",0.977,"L","L",1,0.823
"1",767,10,143,2,2,"left",0.727,"L","L",1,1.232
"1",768,10,144,2,2,"left",0.602,"L","R",0,1.046
"1",769,10,145,1,2,"left",0.872,"L","L",1,1.779
"1",770,10,146,1,2,"left",0.871,"R","R",1,1.113
"1",771,10,147,2,2,"left",0.624,"R","R",1,0.89
"1",772,10,148,2,2,"left",0.686,"L","L",1,1.215
"1",773,10,149,1,2,"left",0.578,"L","L",1,0.657
"1",774,10,150,2,2,"left",0.775,"R","L",0,0.934
"1",775,10,151,1,2,"left",0.758,"L","R",0,1.181
"1",776,10,152,2,2,"left",0.771,"L","L",1,1.046
"1",777,10,153,1,2,"left",0.554,"L","L",1,1.06
"1",778,10,154,1,2,"left",0.732,"R","R",1,1.621
"1",779,10,155,2,2,"left",0.846,"L","L",1,0.878
"1",780,10,156,2,2,"left",0.944,"R","R",1,0.717
"1",781,11,1,1,2,"no",0.745,"R","R",1,0.619
"1",782,11,2,1,2,"no",0.596,"R","R",1,0.804
"1",783,11,3,2,2,"no",0.958,"L","L",1,0.666
"1",784,11,4,2,2,"no",0.715,"L","L",1,0.617
"1",785,11,5,2,2,"no",0.95,"L","L",1,0.927
"1",786,11,6,2,2,"no",0.655,"L","L",1,0.649
"1",787,11,7,2,2,"no",0.537,"R","R",1,0.773
"1",788,11,8,2,2,"no",0.754,"L","L",1,0.585
"1",789,11,9,1,2,"no",0.678,"R","L",0,0.753
"1",790,11,10,2,2,"no",0.798,"R","R",1,0.775
"1",791,11,11,1,2,"no",0.999,"L","L",1,0.637
"1",792,11,12,1,2,"no",0.725,"L","L",1,0.862
"1",793,11,13,2,2,"no",0.943,"R","R",1,0.718
"1",794,11,14,1,2,"no",0.851,"R","R",1,1.252
"1",795,11,15,1,2,"no",0.732,"R","R",1,0.857
"1",796,11,16,1,2,"no",0.814,"L","L",1,0.584
"1",797,11,17,2,2,"no",0.987,"L","L",1,0.563
"1",798,11,18,1,2,"no",0.591,"R","R",1,0.719
"1",799,11,19,2,2,"no",0.821,"L","L",1,0.7
"1",800,11,20,1,2,"no",0.565,"R","R",1,1.434
"1",801,11,21,2,2,"no",0.628,"R","R",1,1.043
"1",802,11,22,1,2,"no",0.536,"L","L",1,0.995
"1",803,11,23,2,2,"no",0.625,"R","R",1,0.67
"1",804,11,24,2,2,"no",0.569,"R","R",1,1.337
"1",805,11,25,2,2,"no",0.537,"R","R",1,0.978
"1",806,11,26,2,2,"no",0.887,"L","L",1,0.823
"1",807,11,27,2,2,"no",0.696,"R","R",1,0.754
"1",808,11,28,2,2,"no",0.875,"L","L",1,0.649
"1",809,11,29,1,2,"no",0.711,"L","L",1,0.74
"1",810,11,30,1,2,"no",0.583,"L","L",1,0.912
"1",811,11,31,2,2,"no",0.88,"R","R",1,0.669
"1",812,11,32,1,2,"no",0.71,"L","L",1,0.618
"1",813,11,33,1,2,"no",0.964,"L","L",1,2.27
"1",814,11,34,2,2,"no",0.871,"L","L",1,0.771
"1",815,11,35,2,2,"no",0.695,"L","L",1,0.839
"1",816,11,36,1,2,"no",0.981,"R","R",1,0.922
"1",817,11,37,1,2,"no",0.6,"R","R",1,0.926
"1",818,11,38,1,2,"no",0.823,"R","R",1,0.649
"1",819,11,39,2,2,"no",0.74,"L","L",1,0.975
"1",820,11,40,2,2,"no",0.654,"L","L",1,0.739
"1",821,11,41,1,2,"no",0.677,"R","R",1,0.671
"1",822,11,42,1,2,"no",0.893,"R","R",1,0.72
"1",823,11,43,2,2,"no",0.728,"L","L",1,0.563
"1",824,11,44,1,2,"no",0.785,"L","L",1,0.553
"1",825,11,45,2,2,"no",0.915,"L","L",1,0.57
"1",826,11,46,1,2,"no",0.64,"L","L",1,0.602
"1",827,11,47,2,2,"no",0.556,"L","L",1,0.635
"1",828,11,48,2,2,"no",0.948,"R","R",1,0.701
"1",829,11,49,1,2,"no",0.773,"R","R",1,0.842
"1",830,11,50,2,2,"no",0.945,"R","L",0,0.569
"1",831,11,51,2,2,"no",0.908,"R","R",1,0.792
"1",832,11,52,2,2,"no",0.502,"R","L",0,0.653
"1",833,11,53,1,2,"no",0.954,"L","L",1,0.719
"1",834,11,54,1,2,"no",0.778,"L","L",1,1.274
"1",835,11,55,2,2,"no",0.697,"R","R",1,0.529
"1",836,11,56,1,2,"no",0.593,"L","L",1,1.108
"1",837,11,57,2,2,"no",0.961,"L","L",1,0.843
"1",838,11,58,1,2,"no",0.741,"R","R",1,0.719
"1",839,11,59,2,2,"no",0.897,"R","R",1,0.945
"1",840,11,60,1,2,"no",0.693,"L","L",1,0.804
"1",841,11,61,2,2,"no",0.732,"R","R",1,0.709
"1",842,11,62,1,2,"no",0.969,"R","R",1,0.74
"1",843,11,63,1,2,"no",0.732,"L","L",1,0.722
"1",844,11,64,1,2,"no",0.639,"R","R",1,0.888
"1",845,11,65,1,2,"no",0.879,"L","L",1,1.965
"1",846,11,66,1,2,"no",0.83,"L","L",1,0.911
"1",847,11,67,1,2,"no",0.606,"R","R",1,1.06
"1",848,11,68,1,2,"no",0.558,"R","R",1,0.805
"1",849,11,69,1,2,"no",0.824,"R","R",1,1.216
"1",850,11,70,2,2,"no",0.525,"L","L",1,1.031
"1",851,11,71,2,2,"no",0.886,"R","R",1,0.855
"1",852,11,72,2,2,"no",0.569,"R","R",1,0.777
"1",853,11,73,2,2,"no",0.762,"R","R",1,0.653
"1",854,11,74,2,2,"no",0.994,"L","L",1,1.128
"1",855,11,75,1,2,"no",0.568,"R","R",1,0.842
"1",856,11,76,1,2,"no",0.72,"R","R",1,1.331
"1",857,11,77,1,2,"no",0.741,"L","L",1,0.913
"1",858,11,78,2,2,"no",0.685,"R","R",1,0.843
"1",859,11,79,2,2,"no",0.995,"L","L",1,1.163
"1",860,11,80,2,2,"no",0.768,"R","R",1,0.873
"1",861,11,81,2,2,"no",0.874,"L","L",1,0.806
"1",862,11,82,1,2,"no",0.958,"R","R",1,0.856
"1",863,11,83,2,2,"no",0.905,"R","L",0,0.922
"1",864,11,84,2,2,"no",0.708,"L","L",1,0.583
"1",865,11,85,2,2,"no",0.54,"L","L",1,0.908
"1",866,11,86,1,2,"no",0.965,"R","R",1,1.458
"1",867,11,87,2,2,"no",0.708,"R","R",1,0.843
"1",868,11,88,2,2,"no",0.582,"L","L",1,0.6
"1",869,11,89,2,2,"no",0.903,"R","R",1,0.719
"1",870,11,90,1,2,"no",0.961,"L","L",1,1.885
"1",871,11,91,1,2,"no",0.85,"L","L",1,0.907
"1",872,11,92,1,2,"no",0.79,"L","L",1,1.336
"1",873,11,93,2,2,"no",0.666,"R","R",1,0.771
"1",874,11,94,2,2,"no",0.768,"L","L",1,1.099
"1",875,11,95,1,2,"no",0.534,"L","R",0,2.495
"1",876,11,96,2,2,"no",0.791,"L","L",1,1.03
"1",877,11,97,1,2,"no",0.55,"R","R",1,0.821
"1",878,11,98,1,2,"no",0.955,"R","R",1,0.758
"1",879,11,99,1,2,"no",0.765,"R","R",1,0.754
"1",880,11,100,2,2,"no",0.552,"L","L",1,0.891
"1",881,11,101,1,2,"no",0.579,"R","R",1,2.16
"1",882,11,102,1,2,"no",0.998,"L","L",1,0.978
"1",883,11,103,1,2,"no",0.955,"L","L",1,1.404
"1",884,11,104,1,2,"no",0.973,"L","R",0,2.259
"1",885,11,105,2,2,"no",0.79,"L","L",1,0.605
"1",886,11,106,1,2,"no",0.532,"L","L",1,1.354
"1",887,11,107,1,2,"no",0.677,"R","R",1,1.247
"1",888,11,108,1,2,"no",0.796,"R","L",0,2.028
"1",889,11,109,1,2,"no",0.778,"R","R",1,1.729
"1",890,11,110,1,2,"no",0.578,"L","L",1,2.002
"1",891,11,111,2,2,"no",0.587,"R","R",1,1.2
"1",892,11,112,1,2,"no",0.546,"L","L",1,0.994
"1",893,11,113,2,2,"no",0.718,"R","R",1,0.974
"1",894,11,114,1,2,"no",0.823,"L","L",1,2.736
"1",895,11,115,1,2,"no",0.73,"R","R",1,0.89
"1",896,11,116,2,2,"no",0.958,"R","R",1,0.774
"1",897,11,117,2,2,"no",0.805,"L","L",1,0.743
"1",898,11,118,2,2,"no",0.746,"L","L",1,0.76
"1",899,11,119,2,2,"no",0.78,"R","R",1,0.897
"1",900,11,120,1,2,"no",0.682,"L","L",1,2.429
"1",901,11,121,1,2,"no",0.891,"R","R",1,0.856
"1",902,11,122,1,2,"no",0.516,"L","L",1,1.451
"1",903,11,123,1,2,"no",0.83,"R","R",1,1.967
"1",904,11,124,2,2,"no",0.818,"L","L",1,0.618
"1",905,11,125,2,2,"no",0.567,"L","L",1,0.724
"1",906,11,126,1,2,"no",0.504,"L","R",0,1.146
"1",907,11,127,1,2,"no",0.735,"L","L",1,0.685
"1",908,11,128,2,2,"no",0.506,"R","R",1,0.839
"1",909,11,129,2,2,"no",0.643,"L","L",1,0.718
"1",910,11,130,2,2,"no",0.553,"R","R",1,0.805
"1",911,11,131,1,2,"no",0.875,"L","L",1,1.419
"1",912,11,132,2,2,"no",0.823,"L","L",1,1.675
"1",913,11,133,1,2,"no",0.826,"R","R",1,0.639
"1",914,11,134,1,2,"no",0.735,"L","L",1,0.724
"1",915,11,135,1,2,"no",0.551,"R","R",1,0.842
"1",916,11,136,2,2,"no",0.921,"R","R",1,0.702
"1",917,11,137,1,2,"no",0.638,"R","R",1,0.654
"1",918,11,138,2,2,"no",0.709,"L","L",1,0.669
"1",919,11,139,1,2,"no",0.698,"R","R",1,0.638
"1",920,11,140,2,2,"no",0.656,"R","R",1,1.933
"1",921,11,141,2,2,"no",0.599,"R","R",1,0.819
"1",922,11,142,2,2,"no",0.644,"L","L",1,0.94
"1",923,11,143,2,2,"no",0.695,"R","R",1,0.854
"1",924,11,144,2,2,"no",0.866,"R","R",1,1.045
"1",925,11,145,2,2,"no",0.76,"R","R",1,0.667
"1",926,11,146,2,2,"no",0.57,"L","L",1,0.791
"1",927,11,147,2,2,"no",0.944,"L","L",1,0.857
"1",928,11,148,1,2,"no",0.899,"L","L",1,0.854
"1",929,11,149,2,2,"no",0.743,"R","R",1,0.74
"1",930,11,150,1,2,"no",0.666,"L","L",1,0.651
"1",931,11,151,1,2,"no",0.836,"R","R",1,0.621
"1",932,11,152,1,2,"no",0.568,"R","R",1,1.042
"1",933,11,153,2,2,"no",0.594,"R","R",1,1.096
"1",934,11,154,2,2,"no",0.861,"L","L",1,0.706
"1",935,11,155,1,2,"no",0.666,"L","L",1,2.696
"1",936,11,156,1,2,"no",0.568,"L","L",1,1.336
"1",937,12,1,2,1,"no",0.946,"R","L",0,0.451
"1",938,12,2,2,1,"no",0.96,"L","L",1,0.532
"1",939,12,3,2,1,"no",0.604,"L","L",1,0.669
"1",940,12,4,1,1,"no",0.913,"L","R",0,0.342
"1",941,12,5,1,1,"no",0.657,"L","L",1,0.531
"1",942,12,6,2,1,"no",0.627,"R","R",1,0.546
"1",943,12,7,1,1,"no",0.62,"L","R",0,0.724
"1",944,12,8,2,1,"no",0.652,"L","R",0,0.548
"1",945,12,9,1,1,"no",0.906,"L","R",0,0.635
"1",946,12,10,2,1,"no",0.507,"R","R",1,0.583
"1",947,12,11,2,1,"no",0.567,"L","L",1,0.431
"1",948,12,12,1,1,"no",0.762,"R","R",1,0.529
"1",949,12,13,2,1,"no",0.507,"R","R",1,0.807
"1",950,12,14,1,1,"no",0.596,"L","R",0,0.548
"1",951,12,15,2,1,"no",0.876,"L","L",1,0.498
"1",952,12,16,1,1,"no",0.985,"R","R",1,0.432
"1",953,12,17,1,1,"no",0.67,"L","R",0,0.447
"1",954,12,18,2,1,"no",0.704,"R","R",1,0.5
"1",955,12,19,2,1,"no",0.688,"R","R",1,0.411
"1",956,12,20,2,1,"no",1,"R","R",1,0.482
"1",957,12,21,1,1,"no",0.993,"L","L",1,0.582
"1",958,12,22,1,1,"no",0.512,"L","L",1,0.55
"1",959,12,23,1,1,"no",0.79,"R","R",1,0.619
"1",960,12,24,1,1,"no",0.702,"L","R",0,0.6
"1",961,12,25,1,1,"no",0.982,"L","L",1,0.259
"1",962,12,26,2,1,"no",0.663,"L","R",0,0.294
"1",963,12,27,2,1,"no",0.686,"R","R",1,0.635
"1",964,12,28,2,1,"no",0.665,"L","L",1,0.462
"1",965,12,29,2,1,"no",0.918,"L","L",1,0.224
"1",966,12,30,2,1,"no",0.961,"R","L",0,0.496
"1",967,12,31,1,1,"no",0.626,"R","R",1,0.617
"1",968,12,32,1,1,"no",0.978,"L","R",0,0.499
"1",969,12,33,2,1,"no",0.717,"L","L",1,0.325
"1",970,12,34,1,1,"no",0.755,"R","R",1,0.278
"1",971,12,35,1,1,"no",0.621,"R","R",1,0.551
"1",972,12,36,1,1,"no",0.623,"R","R",1,0.598
"1",973,12,37,2,1,"no",0.835,"R","R",1,0.513
"1",974,12,38,1,1,"no",0.793,"L","R",0,0.435
"1",975,12,39,2,1,"no",0.92,"L","L",1,0.529
"1",976,12,40,2,1,"no",0.747,"R","L",0,0.448
"1",977,12,41,2,1,"no",0.93,"L","R",0,0.241
"1",978,12,42,1,1,"no",0.532,"R","R",1,0.465
"1",979,12,43,1,1,"no",0.97,"L","R",0,0.248
"1",980,12,44,1,1,"no",0.704,"R","R",1,0.498
"1",981,12,45,1,1,"no",0.696,"R","L",0,0.398
"1",982,12,46,1,1,"no",0.992,"L","L",1,0.346
"1",983,12,47,1,1,"no",0.51,"L","L",1,0.737
"1",984,12,48,2,1,"no",0.884,"L","L",1,0.667
"1",985,12,49,1,1,"no",0.591,"R","R",1,0.537
"1",986,12,50,1,1,"no",0.555,"R","R",1,0.601
"1",987,12,51,1,1,"no",0.665,"R","R",1,0.308
"1",988,12,52,1,1,"no",0.963,"L","L",1,0.635
"1",989,12,53,1,1,"no",0.834,"R","L",0,0.462
"1",990,12,54,1,1,"no",0.677,"L","L",1,0.667
"1",991,12,55,1,1,"no",0.715,"L","L",1,0.414
"1",992,12,56,2,1,"no",0.764,"R","R",1,0.532
"1",993,12,57,1,1,"no",0.676,"L","L",1,0.553
"1",994,12,58,1,1,"no",0.669,"R","R",1,0.497
"1",995,12,59,1,1,"no",0.621,"L","R",0,0.449
"1",996,12,60,2,1,"no",0.856,"R","R",1,0.653
"1",997,12,61,2,1,"no",0.66,"L","R",0,0.632
"1",998,12,62,2,1,"no",0.637,"R","R",1,0.381
"1",999,12,63,2,1,"no",0.689,"L","R",0,0.292
"1",1000,12,64,1,1,"no",0.938,"R","R",1,0.258
"1",1001,12,65,2,1,"no",0.718,"R","R",1,0.345
"1",1002,12,66,2,1,"no",0.742,"L","R",0,0.309
"1",1003,12,67,1,1,"no",0.668,"R","R",1,0.534
"1",1004,12,68,2,1,"no",0.811,"L","L",1,0.634
"1",1005,12,69,1,1,"no",0.893,"L","L",1,0.637
"1",1006,12,70,2,1,"no",0.611,"L","L",1,0.513
"1",1007,12,71,2,1,"no",0.873,"L","L",1,0.479
"1",1008,12,72,2,1,"no",0.785,"R","R",1,0.573
"1",1009,12,73,1,1,"no",0.538,"R","L",0,0.653
"1",1010,12,74,2,1,"no",0.739,"L","L",1,0.531
"1",1011,12,75,2,1,"no",0.704,"L","L",1,0.55
"1",1012,12,76,2,1,"no",0.607,"R","R",1,0.498
"1",1013,12,77,1,1,"no",0.896,"R","L",0,0.67
"1",1014,12,78,1,1,"no",0.768,"L","L",1,0.415
"1",1015,12,79,2,1,"no",0.664,"L","L",1,0.563
"1",1016,12,80,2,1,"no",0.719,"R","R",1,0.601
"1",1017,12,81,2,1,"no",0.902,"R","R",1,0.467
"1",1018,12,82,2,1,"no",0.613,"R","R",1,0.449
"1",1019,12,83,2,1,"no",0.587,"L","L",1,0.553
"1",1020,12,84,2,1,"no",0.65,"L","R",0,0.531
"1",1021,12,85,2,1,"no",0.657,"L","R",0,0.858
"1",1022,12,86,2,1,"no",0.996,"L","R",0,0.619
"1",1023,12,87,2,1,"no",0.705,"L","L",1,0.617
"1",1024,12,88,1,1,"no",0.666,"R","R",1,0.446
"1",1025,12,89,2,1,"no",0.747,"L","L",1,0.479
"1",1026,12,90,1,1,"no",0.735,"L","R",0,0.55
"1",1027,12,91,1,1,"no",0.824,"R","R",1,0.496
"1",1028,12,92,1,1,"no",0.601,"R","R",1,0.547
"1",1029,12,93,1,1,"no",0.64,"R","R",1,0.397
"1",1030,12,94,2,1,"no",0.576,"L","L",1,0.531
"1",1031,12,95,1,1,"no",0.668,"L","L",1,0.466
"1",1032,12,96,2,1,"no",0.853,"L","R",0,0.359
"1",1033,12,97,2,1,"no",0.634,"L","L",1,0.462
"1",1034,12,98,2,1,"no",0.954,"R","R",1,0.428
"1",1035,12,99,1,1,"no",0.718,"L","R",0,0.516
"1",1036,12,100,1,1,"no",0.735,"L","L",1,0.445
"1",1037,12,101,1,1,"no",0.646,"L","R",0,0.532
"1",1038,12,102,2,1,"no",0.686,"L","L",1,0.501
"1",1039,12,103,2,1,"no",0.559,"R","R",1,0.6
"1",1040,12,104,1,1,"no",0.617,"R","R",1,0.637
"1",1041,12,105,2,1,"no",0.583,"R","R",1,0.519
"1",1042,12,106,2,1,"no",0.882,"R","R",1,0.615
"1",1043,12,107,1,1,"no",0.625,"R","R",1,0.48
"1",1044,12,108,1,1,"no",0.672,"R","R",1,0.448
"1",1045,12,109,2,1,"no",0.973,"R","R",1,0.327
"1",1046,12,110,2,1,"no",0.879,"R","R",1,0.376
"1",1047,12,111,1,1,"no",0.81,"R","R",1,0.479
"1",1048,12,112,1,1,"no",0.556,"L","L",1,0.893
"1",1049,12,113,1,1,"no",0.79,"R","R",1,0.619
"1",1050,12,114,2,1,"no",0.81,"R","R",1,0.548
"1",1051,12,115,2,1,"no",0.724,"R","R",1,0.568
"1",1052,12,116,1,1,"no",0.899,"L","R",0,0.479
"1",1053,12,117,1,1,"no",0.986,"L","L",1,1.008
"1",1054,12,118,2,1,"no",0.888,"L","L",1,0.531
"1",1055,12,119,2,1,"no",0.896,"R","L",0,0.738
"1",1056,12,120,2,1,"no",0.631,"L","R",0,0.479
"1",1057,12,121,1,1,"no",0.5,"R","L",0,0.563
"1",1058,12,122,1,1,"no",0.758,"R","R",1,0.483
"1",1059,12,123,2,1,"no",0.518,"R","R",1,0.601
"1",1060,12,124,1,1,"no",0.546,"L","R",0,0.587
"1",1061,12,125,1,1,"no",0.573,"L","R",0,0.618
"1",1062,12,126,1,1,"no",0.866,"L","L",1,0.481
"1",1063,12,127,2,1,"no",0.752,"R","R",1,0.567
"1",1064,12,128,1,1,"no",0.573,"R","R",1,0.531
"1",1065,12,129,1,1,"no",0.978,"R","R",1,0.468
"1",1066,12,130,1,1,"no",0.757,"R","R",1,0.398
"1",1067,12,131,1,1,"no",0.878,"R","R",1,0.359
"1",1068,12,132,1,1,"no",0.741,"R","R",1,0.584
"1",1069,12,133,1,1,"no",0.933,"R","R",1,0.191
"1",1070,12,134,1,1,"no",0.806,"L","R",0,0.517
"1",1071,12,135,2,1,"no",0.923,"L","R",0,0.581
"1",1072,12,136,2,1,"no",0.936,"L","L",1,0.771
"1",1073,12,137,2,1,"no",0.925,"L","R",0,0.383
"1",1074,12,138,1,1,"no",0.842,"L","L",1,0.497
"1",1075,12,139,2,1,"no",0.58,"L","L",1,0.531
"1",1076,12,140,1,1,"no",0.545,"L","L",1,0.431
"1",1077,12,141,1,1,"no",0.842,"R","L",0,0.548
"1",1078,12,142,2,1,"no",0.826,"R","R",1,0.428
"1",1079,12,143,1,1,"no",0.792,"L","R",0,0.434
"1",1080,12,144,1,1,"no",0.598,"L","R",0,0.804
"1",1081,12,145,1,1,"no",0.831,"L","L",1,0.618
"1",1082,12,146,2,1,"no",0.747,"L","L",1,0.428
"1",1083,12,147,2,1,"no",0.944,"R","L",0,0.358
"1",1084,12,148,2,1,"no",0.817,"R","R",1,0.466
"1",1085,12,149,1,1,"no",0.959,"R","L",0,0.548
"1",1086,12,150,2,1,"no",0.892,"R","L",0,0.55
"1",1087,12,151,2,1,"no",0.526,"L","L",1,0.411
"1",1088,12,152,1,1,"no",0.846,"R","R",1,0.38
"1",1089,12,153,2,1,"no",0.851,"R","R",1,0.412
"1",1090,12,154,2,1,"no",0.508,"R","R",1,0.48
"1",1091,12,155,2,1,"no",0.884,"R","R",1,0.341
"1",1092,12,156,2,1,"no",0.666,"R","R",1,0.445
"1",1093,13,1,1,1,"right",0.755,"R","L",0,0.67
"1",1094,13,2,1,1,"right",0.718,"L","L",1,0.428
"1",1095,13,3,2,1,"right",0.772,"L","L",1,0.449
"1",1096,13,4,2,1,"right",0.726,"R","R",1,0.5
"1",1097,13,5,2,1,"right",0.811,"L","L",1,0.428
"1",1098,13,6,1,1,"right",0.506,"R","L",0,0.428
"1",1099,13,7,1,1,"right",0.844,"R","R",1,0.807
"1",1100,13,8,2,1,"right",0.96,"L","L",1,0.586
"1",1101,13,9,1,1,"right",0.751,"L","L",1,0.655
"1",1102,13,10,1,1,"right",0.981,"R","R",1,0.463
"1",1103,13,11,2,1,"right",0.742,"R","L",0,0.529
"1",1104,13,12,2,1,"right",0.638,"R","R",1,0.598
"1",1105,13,13,2,1,"right",0.734,"R","L",0,0.754
"1",1106,13,14,2,1,"right",0.91,"R","L",0,0.501
"1",1107,13,15,1,1,"right",0.644,"L","L",1,0.67
"1",1108,13,16,1,1,"right",0.798,"L","L",1,0.761
"1",1109,13,17,2,1,"right",0.674,"L","R",0,0.669
"1",1110,13,18,2,1,"right",0.947,"L","L",1,0.513
"1",1111,13,19,2,1,"right",0.886,"L","R",0,0.529
"1",1112,13,20,1,1,"right",0.988,"L","R",0,0.601
"1",1113,13,21,2,1,"right",0.993,"L","L",1,0.427
"1",1114,13,22,2,1,"right",0.594,"R","R",1,0.546
"1",1115,13,23,2,1,"right",0.641,"R","R",1,0.838
"1",1116,13,24,1,1,"right",0.566,"R","L",0,0.6
"1",1117,13,25,1,1,"right",0.714,"R","R",1,0.342
"1",1118,13,26,1,1,"right",0.58,"R","R",1,0.604
"1",1119,13,27,1,1,"right",0.913,"R","R",1,0.603
"1",1120,13,28,1,1,"right",0.857,"R","R",1,0.394
"1",1121,13,29,2,1,"right",0.783,"R","R",1,0.468
"1",1122,13,30,1,1,"right",0.816,"L","L",1,0.616
"1",1123,13,31,1,1,"right",0.694,"R","R",1,0.515
"1",1124,13,32,1,1,"right",0.606,"R","R",1,0.534
"1",1125,13,33,1,1,"right",0.529,"R","R",1,0.513
"1",1126,13,34,2,1,"right",0.845,"L","L",1,0.568
"1",1127,13,35,2,1,"right",0.74,"R","R",1,0.53
"1",1128,13,36,2,1,"right",0.574,"L","L",1,0.55
"1",1129,13,37,1,1,"right",0.906,"R","R",1,0.483
"1",1130,13,38,1,1,"right",0.607,"L","L",1,0.415
"1",1131,13,39,2,1,"right",0.641,"R","L",0,0.434
"1",1132,13,40,2,1,"right",0.822,"R","R",1,0.292
"1",1133,13,41,1,1,"right",0.709,"R","R",1,0.328
"1",1134,13,42,2,1,"right",0.81,"R","R",1,0.325
"1",1135,13,43,2,1,"right",0.634,"R","R",1,0.359
"1",1136,13,44,1,1,"right",0.924,"L","L",1,0.346
"1",1137,13,45,1,1,"right",0.905,"R","R",1,0.432
"1",1138,13,46,1,1,"right",0.93,"R","R",1,0.363
"1",1139,13,47,1,1,"right",0.71,"L","R",0,0.428
"1",1140,13,48,2,1,"right",0.507,"R","R",1,0.532
"1",1141,13,49,2,1,"right",0.562,"R","R",1,0.449
"1",1142,13,50,1,1,"right",0.625,"L","R",0,0.651
"1",1143,13,51,2,1,"right",0.638,"R","L",0,0.553
"1",1144,13,52,1,1,"right",0.672,"L","L",1,0.652
"1",1145,13,53,1,1,"right",0.682,"L","L",1,0.57
"1",1146,13,54,2,1,"right",0.914,"L","L",1,0.463
"1",1147,13,55,1,1,"right",0.521,"R","R",1,0.652
"1",1148,13,56,2,1,"right",0.954,"R","R",1,0.411
"1",1149,13,57,2,1,"right",0.689,"L","L",1,0.622
"1",1150,13,58,1,1,"right",0.759,"R","R",1,0.498
"1",1151,13,59,2,1,"right",0.982,"R","R",1,0.291
"1",1152,13,60,1,1,"right",0.564,"L","L",1,0.581
"1",1153,13,61,2,1,"right",0.5,"L","R",0,0.585
"1",1154,13,62,2,1,"right",0.805,"R","R",1,0.448
"1",1155,13,63,1,1,"right",0.529,"R","L",0,0.635
"1",1156,13,64,1,1,"right",1,"R","R",1,0.639
"1",1157,13,65,1,1,"right",0.648,"L","R",0,0.428
"1",1158,13,66,1,1,"right",0.736,"L","L",1,0.531
"1",1159,13,67,2,1,"right",0.612,"L","R",0,0.554
"1",1160,13,68,1,1,"right",0.615,"R","R",1,0.584
"1",1161,13,69,2,1,"right",0.754,"L","L",1,0.546
"1",1162,13,70,2,1,"right",0.528,"R","R",1,0.654
"1",1163,13,71,2,1,"right",0.996,"R","R",1,0.501
"1",1164,13,72,2,1,"right",0.537,"L","L",1,0.532
"1",1165,13,73,1,1,"right",0.895,"R","R",1,0.364
"1",1166,13,74,1,1,"right",0.573,"R","R",1,0.636
"1",1167,13,75,2,1,"right",0.667,"R","R",1,0.345
"1",1168,13,76,1,1,"right",0.761,"L","L",1,0.48
"1",1169,13,77,1,1,"right",0.567,"R","R",1,0.428
"1",1170,13,78,2,1,"right",0.956,"R","L",0,0.506
"1",1171,13,79,1,1,"right",0.856,"R","L",0,0.531
"1",1172,13,80,2,1,"right",0.555,"R","L",0,0.788
"1",1173,13,81,2,1,"right",0.805,"R","R",1,0.395
"1",1174,13,82,2,1,"right",0.741,"R","R",1,0.583
"1",1175,13,83,1,1,"right",0.689,"L","R",0,0.448
"1",1176,13,84,2,1,"right",0.75,"R","R",1,0.466
"1",1177,13,85,1,1,"right",0.984,"L","L",1,0.397
"1",1178,13,86,1,1,"right",0.883,"R","R",1,0.552
"1",1179,13,87,2,1,"right",0.651,"R","R",1,0.529
"1",1180,13,88,1,1,"right",0.538,"R","R",1,0.514
"1",1181,13,89,1,1,"right",0.879,"R","R",1,0.445
"1",1182,13,90,1,1,"right",0.752,"R","R",1,0.428
"1",1183,13,91,2,1,"right",0.537,"R","R",1,0.565
"1",1184,13,92,1,1,"right",0.817,"R","R",1,0.569
"1",1185,13,93,1,1,"right",0.518,"L","R",0,0.446
"1",1186,13,94,1,1,"right",0.575,"R","R",1,0.619
"1",1187,13,95,1,1,"right",0.756,"R","R",1,0.448
"1",1188,13,96,1,1,"right",0.584,"R","R",1,0.52
"1",1189,13,97,1,1,"right",0.573,"R","L",0,0.684
"1",1190,13,98,2,1,"right",0.993,"R","L",0,0.546
"1",1191,13,99,2,1,"right",0.824,"R","R",1,0.514
"1",1192,13,100,2,1,"right",0.856,"R","L",0,0.618
"1",1193,13,101,2,1,"right",0.614,"R","R",1,0.687
"1",1194,13,102,1,1,"right",0.715,"L","R",0,0.519
"1",1195,13,103,1,1,"right",0.708,"R","R",1,0.547
"1",1196,13,104,1,1,"right",0.974,"R","R",1,0.497
"1",1197,13,105,1,1,"right",0.976,"R","R",1,0.55
"1",1198,13,106,2,1,"right",0.956,"R","R",1,0.689
"1",1199,13,107,2,1,"right",0.52,"L","R",0,0.38
"1",1200,13,108,2,1,"right",0.576,"R","R",1,0.515
"1",1201,13,109,1,1,"right",0.677,"R","R",1,0.531
"1",1202,13,110,1,1,"right",0.553,"R","R",1,0.581
"1",1203,13,111,1,1,"right",0.617,"R","R",1,0.563
"1",1204,13,112,2,1,"right",0.549,"L","L",1,0.891
"1",1205,13,113,2,1,"right",0.566,"L","L",1,0.787
"1",1206,13,114,2,1,"right",0.839,"R","L",0,0.383
"1",1207,13,115,1,1,"right",0.994,"L","R",0,0.363
"1",1208,13,116,2,1,"right",0.794,"L","L",1,0.791
"1",1209,13,117,2,1,"right",0.563,"R","L",0,0.445
"1",1210,13,118,2,1,"right",0.699,"L","L",1,0.55
"1",1211,13,119,1,1,"right",0.866,"L","R",0,0.328
"1",1212,13,120,2,1,"right",0.921,"L","L",1,0.536
"1",1213,13,121,1,1,"right",0.849,"R","R",1,0.587
"1",1214,13,122,1,1,"right",0.599,"R","R",1,0.551
"1",1215,13,123,2,1,"right",0.769,"L","R",0,0.52
"1",1216,13,124,2,1,"right",0.879,"R","L",0,0.567
"1",1217,13,125,1,1,"right",0.695,"L","L",1,0.466
"1",1218,13,126,1,1,"right",0.947,"R","R",1,0.788
"1",1219,13,127,1,1,"right",0.646,"R","R",1,0.568
"1",1220,13,128,2,1,"right",0.733,"L","L",1,0.514
"1",1221,13,129,2,1,"right",0.51,"R","R",1,0.584
"1",1222,13,130,1,1,"right",0.736,"R","R",1,0.601
"1",1223,13,131,2,1,"right",0.512,"R","R",1,0.516
"1",1224,13,132,2,1,"right",0.92,"R","R",1,0.569
"1",1225,13,133,1,1,"right",0.643,"L","R",0,0.55
"1",1226,13,134,2,1,"right",0.973,"R","R",1,0.722
"1",1227,13,135,2,1,"right",0.779,"R","R",1,0.484
"1",1228,13,136,2,1,"right",0.501,"L","L",1,0.531
"1",1229,13,137,1,1,"right",0.88,"L","L",1,0.515
"1",1230,13,138,2,1,"right",0.672,"R","R",1,0.515
"1",1231,13,139,2,1,"right",0.63,"R","R",1,0.496
"1",1232,13,140,2,1,"right",0.546,"R","L",0,0.514
"1",1233,13,141,2,1,"right",0.515,"R","R",1,0.513
"1",1234,13,142,2,1,"right",0.662,"R","R",1,0.633
"1",1235,13,143,1,1,"right",0.937,"R","R",1,0.498
"1",1236,13,144,1,1,"right",0.646,"R","R",1,0.546
"1",1237,13,145,1,1,"right",0.717,"R","L",0,0.481
"1",1238,13,146,2,1,"right",0.997,"R","R",1,0.503
"1",1239,13,147,1,1,"right",0.63,"R","R",1,0.483
"1",1240,13,148,2,1,"right",0.708,"L","R",0,0.363
"1",1241,13,149,2,1,"right",0.915,"L","R",0,0.48
"1",1242,13,150,2,1,"right",0.84,"R","R",1,0.546
"1",1243,13,151,1,1,"right",0.576,"R","L",0,0.654
"1",1244,13,152,1,1,"right",0.729,"R","R",1,0.788
"1",1245,13,153,2,1,"right",0.999,"R","R",1,0.59
"1",1246,13,154,1,1,"right",0.867,"R","R",1,0.462
"1",1247,13,155,1,1,"right",0.86,"L","R",0,0.448
"1",1248,13,156,2,1,"right",0.762,"R","R",1,0.465
"1",1249,14,1,2,2,"right",0.689,"R","R",1,0.804
"1",1250,14,2,2,2,"right",0.838,"R","R",1,1.269
"1",1251,14,3,2,2,"right",0.941,"R","R",1,0.788
"1",1252,14,4,2,2,"right",0.983,"L","L",1,0.615
"1",1253,14,5,2,2,"right",0.728,"R","R",1,0.635
"1",1254,14,6,2,2,"right",0.923,"R","R",1,0.737
"1",1255,14,7,2,2,"right",0.545,"R","R",1,0.822
"1",1256,14,8,1,2,"right",0.52,"R","R",1,0.926
"1",1257,14,9,1,2,"right",0.947,"L","L",1,0.96
"1",1258,14,10,2,2,"right",0.52,"L","L",1,0.909
"1",1259,14,11,2,2,"right",0.725,"R","R",1,0.684
"1",1260,14,12,2,2,"right",0.946,"R","L",0,1.112
"1",1261,14,13,2,2,"right",0.886,"L","L",1,0.651
"1",1262,14,14,1,2,"right",0.699,"R","R",1,0.621
"1",1263,14,15,1,2,"right",0.922,"R","R",1,0.977
"1",1264,14,16,1,2,"right",0.786,"L","L",1,0.601
"1",1265,14,17,2,2,"right",0.881,"R","R",1,0.551
"1",1266,14,18,2,2,"right",0.78,"R","R",1,0.496
"1",1267,14,19,1,2,"right",0.778,"L","L",1,0.76
"1",1268,14,20,1,2,"right",0.845,"L","L",1,0.581
"1",1269,14,21,2,2,"right",0.625,"R","R",1,0.581
"1",1270,14,22,2,2,"right",0.979,"R","R",1,0.565
"1",1271,14,23,1,2,"right",0.87,"R","R",1,0.519
"1",1272,14,24,1,2,"right",0.734,"L","L",1,0.808
"1",1273,14,25,2,2,"right",0.662,"R","R",1,0.871
"1",1274,14,26,2,2,"right",0.682,"R","R",1,0.502
"1",1275,14,27,1,2,"right",0.732,"R","R",1,0.706
"1",1276,14,28,2,2,"right",0.525,"R","R",1,0.771
"1",1277,14,29,1,2,"right",0.814,"R","R",1,0.632
"1",1278,14,30,1,2,"right",0.678,"L","L",1,0.548
"1",1279,14,31,2,2,"right",0.927,"R","R",1,0.533
"1",1280,14,32,2,2,"right",0.611,"R","R",1,0.57
"1",1281,14,33,1,2,"right",0.862,"L","L",1,0.791
"1",1282,14,34,2,2,"right",0.517,"R","R",1,0.683
"1",1283,14,35,1,2,"right",0.667,"R","L",0,1.934
"1",1284,14,36,2,2,"right",0.862,"R","R",1,0.754
"1",1285,14,37,2,2,"right",0.718,"L","L",1,0.551
"1",1286,14,38,1,2,"right",0.651,"L","R",0,0.601
"1",1287,14,39,1,2,"right",0.516,"R","R",1,2.206
"1",1288,14,40,2,2,"right",0.566,"R","L",0,0.89
"1",1289,14,41,1,2,"right",0.667,"R","R",1,0.651
"1",1290,14,42,2,2,"right",0.863,"R","R",1,0.808
"1",1291,14,43,2,2,"right",0.711,"L","L",1,0.702
"1",1292,14,44,1,2,"right",0.99,"R","R",1,0.685
"1",1293,14,45,1,2,"right",0.893,"L","L",1,0.785
"1",1294,14,46,1,2,"right",0.876,"R","R",1,1.316
"1",1295,14,47,2,2,"right",0.918,"R","R",1,0.754
"1",1296,14,48,1,2,"right",0.542,"R","R",1,0.905
"1",1297,14,49,1,2,"right",0.985,"L","L",1,0.77
"1",1298,14,50,1,2,"right",0.898,"R","L",0,1.355
"1",1299,14,51,2,2,"right",0.991,"R","R",1,0.601
"1",1300,14,52,2,2,"right",0.812,"R","L",0,0.811
"1",1301,14,53,2,2,"right",0.696,"R","R",1,0.513
"1",1302,14,54,2,2,"right",0.793,"L","L",1,0.758
"1",1303,14,55,1,2,"right",0.809,"R","R",1,0.753
"1",1304,14,56,1,2,"right",0.734,"R","R",1,0.924
"1",1305,14,57,1,2,"right",0.799,"L","L",1,0.873
"1",1306,14,58,1,2,"right",0.962,"R","R",1,0.891
"1",1307,14,59,2,2,"right",0.799,"R","R",1,0.74
"1",1308,14,60,1,2,"right",0.583,"L","R",0,1.233
"1",1309,14,61,2,2,"right",0.966,"R","R",1,0.857
"1",1310,14,62,1,2,"right",0.995,"R","R",1,0.929
"1",1311,14,63,1,2,"right",0.99,"R","R",1,0.826
"1",1312,14,64,2,2,"right",0.695,"L","L",1,0.718
"1",1313,14,65,1,2,"right",0.526,"L","L",1,1.234
"1",1314,14,66,1,2,"right",0.908,"L","L",1,0.907
"1",1315,14,67,1,2,"right",0.795,"R","R",1,1.035
"1",1316,14,68,1,2,"right",0.538,"R","R",1,1.13
"1",1317,14,69,1,2,"right",0.548,"R","R",1,1.027
"1",1318,14,70,2,2,"right",0.861,"L","L",1,0.771
"1",1319,14,71,1,2,"right",0.861,"R","L",0,1.127
"1",1320,14,72,2,2,"right",0.819,"L","L",1,0.958
"1",1321,14,73,2,2,"right",0.716,"R","R",1,0.632
"1",1322,14,74,2,2,"right",0.979,"R","R",1,0.584
"1",1323,14,75,2,2,"right",0.719,"L","L",1,0.84
"1",1324,14,76,1,2,"right",0.856,"R","R",1,0.756
"1",1325,14,77,2,2,"right",0.563,"R","R",1,0.652
"1",1326,14,78,1,2,"right",0.737,"R","R",1,0.67
"1",1327,14,79,1,2,"right",0.907,"R","R",1,0.649
"1",1328,14,80,2,2,"right",0.922,"R","R",1,0.548
"1",1329,14,81,1,2,"right",0.58,"R","R",1,0.758
"1",1330,14,82,1,2,"right",0.924,"R","R",1,0.794
"1",1331,14,83,2,2,"right",0.788,"L","L",1,0.774
"1",1332,14,84,1,2,"right",0.685,"R","R",1,0.546
"1",1333,14,85,1,2,"right",0.829,"L","R",0,1.768
"1",1334,14,86,2,2,"right",0.858,"R","R",1,0.584
"1",1335,14,87,1,2,"right",0.774,"L","L",1,0.74
"1",1336,14,88,1,2,"right",0.541,"R","R",1,0.808
"1",1337,14,89,1,2,"right",0.808,"R","R",1,0.621
"1",1338,14,90,2,2,"right",0.584,"L","L",1,0.704
"1",1339,14,91,1,2,"right",0.575,"R","R",1,0.686
"1",1340,14,92,1,2,"right",0.627,"R","R",1,0.686
"1",1341,14,93,2,2,"right",0.54,"R","R",1,0.706
"1",1342,14,94,2,2,"right",0.804,"R","R",1,1.219
"1",1343,14,95,2,2,"right",0.53,"R","R",1,1.009
"1",1344,14,96,2,2,"right",0.985,"L","L",1,0.584
"1",1345,14,97,1,2,"right",0.917,"L","R",0,0.737
"1",1346,14,98,1,2,"right",0.86,"R","R",1,0.587
"1",1347,14,99,2,2,"right",0.867,"R","R",1,0.719
"1",1348,14,100,2,2,"right",0.83,"L","R",0,0.79
"1",1349,14,101,1,2,"right",0.542,"L","R",0,2.075
"1",1350,14,102,2,2,"right",0.968,"R","R",1,0.557
"1",1351,14,103,2,2,"right",0.824,"L","L",1,0.587
"1",1352,14,104,2,2,"right",0.765,"L","L",1,0.706
"1",1353,14,105,1,2,"right",0.948,"R","R",1,0.839
"1",1354,14,106,1,2,"right",0.967,"L","L",1,1.761
"1",1355,14,107,2,2,"right",0.539,"R","R",1,0.669
"1",1356,14,108,1,2,"right",0.74,"R","R",1,1.116
"1",1357,14,109,2,2,"right",0.96,"L","L",1,0.905
"1",1358,14,110,1,2,"right",0.92,"R","R",1,0.723
"1",1359,14,111,2,2,"right",0.834,"L","L",1,0.839
"1",1360,14,112,1,2,"right",0.7,"L","L",1,1.066
"1",1361,14,113,1,2,"right",0.971,"L","L",1,0.994
"1",1362,14,114,2,2,"right",0.577,"R","R",1,0.976
"1",1363,14,115,1,2,"right",0.863,"R","R",1,0.822
"1",1364,14,116,2,2,"right",0.941,"L","L",1,0.841
"1",1365,14,117,2,2,"right",0.952,"R","R",1,0.84
"1",1366,14,118,1,2,"right",0.589,"R","R",1,0.81
"1",1367,14,119,2,2,"right",0.669,"R","R",1,0.963
"1",1368,14,120,2,2,"right",0.54,"R","R",1,0.839
"1",1369,14,121,1,2,"right",0.583,"R","R",1,0.881
"1",1370,14,122,2,2,"right",0.54,"R","R",1,0.888
"1",1371,14,123,1,2,"right",0.851,"L","L",1,1.523
"1",1372,14,124,2,2,"right",0.707,"L","L",1,0.702
"1",1373,14,125,1,2,"right",0.941,"R","R",1,0.891
"1",1374,14,126,2,2,"right",0.615,"L","L",1,0.793
"1",1375,14,127,1,2,"right",0.765,"R","R",1,1.37
"1",1376,14,128,1,2,"right",0.576,"R","R",1,0.995
"1",1377,14,129,1,2,"right",0.67,"L","L",1,0.913
"1",1378,14,130,2,2,"right",0.705,"L","L",1,0.788
"1",1379,14,131,2,2,"right",0.568,"L","L",1,0.94
"1",1380,14,132,1,2,"right",0.887,"R","R",1,0.843
"1",1381,14,133,1,2,"right",0.909,"R","R",1,0.566
"1",1382,14,134,2,2,"right",0.569,"L","L",1,0.893
"1",1383,14,135,2,2,"right",0.592,"R","R",1,0.727
"1",1384,14,136,1,2,"right",0.792,"R","R",1,0.706
"1",1385,14,137,2,2,"right",0.658,"R","R",1,0.688
"1",1386,14,138,1,2,"right",0.987,"L","L",1,1.573
"1",1387,14,139,1,2,"right",0.683,"R","R",1,0.821
"1",1388,14,140,1,2,"right",0.517,"L","L",1,1.087
"1",1389,14,141,2,2,"right",0.905,"L","L",1,1.387
"1",1390,14,142,2,2,"right",0.612,"R","R",1,0.926
"1",1391,14,143,1,2,"right",0.658,"R","R",1,0.888
"1",1392,14,144,1,2,"right",0.98,"L","L",1,0.778
"1",1393,14,145,1,2,"right",0.687,"R","R",1,0.651
"1",1394,14,146,1,2,"right",0.551,"R","R",1,2.193
"1",1395,14,147,1,2,"right",0.626,"R","R",1,0.707
"1",1396,14,148,1,2,"right",0.626,"R","R",1,1.267
"1",1397,14,149,2,2,"right",0.943,"R","R",1,1.402
"1",1398,14,150,2,2,"right",0.809,"R","R",1,0.754
"1",1399,14,151,2,2,"right",0.529,"R","R",1,1.545
"1",1400,14,152,2,2,"right",0.752,"R","R",1,2.34
"1",1401,14,153,2,2,"right",0.545,"L","L",1,1.369
"1",1402,14,154,2,2,"right",0.98,"R","R",1,1.3
"1",1403,14,155,2,2,"right",0.763,"R","R",1,0.996
"1",1404,14,156,1,2,"right",0.859,"R","R",1,1.246
"1",1405,15,1,1,2,"no",0.808,"R","R",1,1.13
"1",1406,15,2,2,2,"no",0.743,"R","R",1,1.059
"1",1407,15,3,1,2,"no",0.752,"R","R",1,0.757
"1",1408,15,4,1,2,"no",0.876,"L","R",0,0.871
"1",1409,15,5,1,2,"no",0.93,"R","R",1,1.711
"1",1410,15,6,2,2,"no",0.563,"L","L",1,0.634
"1",1411,15,7,1,2,"no",0.554,"L","L",1,0.649
"1",1412,15,8,1,2,"no",0.975,"R","L",0,0.636
"1",1413,15,9,1,2,"no",0.728,"L","L",1,1.333
"1",1414,15,10,2,2,"no",0.679,"L","L",1,0.756
"1",1415,15,11,1,2,"no",0.899,"R","R",1,0.96
"1",1416,15,12,2,2,"no",0.877,"R","R",1,0.857
"1",1417,15,13,2,2,"no",0.645,"L","L",1,0.926
"1",1418,15,14,1,2,"no",0.565,"R","L",0,0.907
"1",1419,15,15,2,2,"no",0.68,"R","R",1,0.993
"1",1420,15,16,2,2,"no",0.577,"R","R",1,1.13
"1",1421,15,17,2,2,"no",0.887,"R","R",1,1.987
"1",1422,15,18,1,2,"no",0.834,"R","R",1,1.213
"1",1423,15,19,2,2,"no",0.51,"L","L",1,0.881
"1",1424,15,20,2,2,"no",0.654,"R","R",1,1.368
"1",1425,15,21,2,2,"no",0.808,"R","R",1,1.054
"1",1426,15,22,2,2,"no",0.817,"R","R",1,1.042
"1",1427,15,23,1,2,"no",0.952,"R","L",0,1.18
"1",1428,15,24,2,2,"no",0.543,"L","R",0,0.724
"1",1429,15,25,1,2,"no",0.816,"L","L",1,0.875
"1",1430,15,26,1,2,"no",0.807,"R","R",1,1.256
"1",1431,15,27,1,2,"no",0.867,"R","R",1,1.047
"1",1432,15,28,2,2,"no",0.544,"L","L",1,0.825
"1",1433,15,29,2,2,"no",0.832,"R","R",1,0.823
"1",1434,15,30,1,2,"no",0.571,"L","L",1,1.01
"1",1435,15,31,2,2,"no",0.952,"R","R",1,0.722
"1",1436,15,32,1,2,"no",0.717,"L","L",1,0.79
"1",1437,15,33,1,2,"no",0.798,"R","R",1,0.875
"1",1438,15,34,2,2,"no",0.581,"R","L",0,0.943
"1",1439,15,35,2,2,"no",0.646,"L","L",1,0.567
"1",1440,15,36,1,2,"no",0.734,"R","R",1,0.6
"1",1441,15,37,2,2,"no",0.722,"L","L",1,0.826
"1",1442,15,38,1,2,"no",0.812,"R","R",1,0.839
"1",1443,15,39,2,2,"no",0.751,"L","L",1,0.907
"1",1444,15,40,2,2,"no",0.779,"L","L",1,0.877
"1",1445,15,41,2,2,"no",0.688,"L","L",1,0.975
"1",1446,15,42,1,2,"no",0.622,"R","R",1,0.999
"1",1447,15,43,2,2,"no",0.838,"R","R",1,0.941
"1",1448,15,44,2,2,"no",0.961,"R","R",1,1.59
"1",1449,15,45,1,2,"no",0.878,"R","R",1,1.284
"1",1450,15,46,1,2,"no",0.567,"L","L",1,1.099
"1",1451,15,47,2,2,"no",0.987,"L","L",1,0.773
"1",1452,15,48,1,2,"no",0.812,"R","R",1,0.941
"1",1453,15,49,2,2,"no",0.867,"L","L",1,0.924
"1",1454,15,50,1,2,"no",0.539,"L","L",1,1.148
"1",1455,15,51,2,2,"no",0.598,"R","R",1,0.787
"1",1456,15,52,2,2,"no",0.551,"R","R",1,1.18
"1",1457,15,53,1,2,"no",0.697,"R","R",1,1.026
"1",1458,15,54,2,2,"no",0.584,"L","L",1,0.93
"1",1459,15,55,1,2,"no",0.618,"R","R",1,0.771
"1",1460,15,56,1,2,"no",0.752,"L","R",0,0.839
"1",1461,15,57,2,2,"no",0.759,"R","R",1,0.842
"1",1462,15,58,1,2,"no",0.659,"L","L",1,0.602
"1",1463,15,59,2,2,"no",0.982,"L","L",1,0.718
"1",1464,15,60,2,2,"no",0.941,"R","R",1,0.632
"1",1465,15,61,1,2,"no",0.903,"L","L",1,0.864
"1",1466,15,62,1,2,"no",0.86,"L","L",1,1.065
"1",1467,15,63,1,2,"no",0.507,"L","L",1,0.77
"1",1468,15,64,1,2,"no",0.584,"R","R",1,0.83
"1",1469,15,65,1,2,"no",0.56,"L","R",0,0.895
"1",1470,15,66,1,2,"no",0.566,"R","R",1,0.909
"1",1471,15,67,2,2,"no",0.973,"L","L",1,0.718
"1",1472,15,68,1,2,"no",0.769,"L","L",1,1.011
"1",1473,15,69,2,2,"no",0.504,"R","R",1,0.615
"1",1474,15,70,2,2,"no",0.682,"R","R",1,0.551
"1",1475,15,71,2,2,"no",0.736,"L","L",1,0.759
"1",1476,15,72,2,2,"no",0.515,"R","R",1,0.598
"1",1477,15,73,1,2,"no",0.998,"L","L",1,0.805
"1",1478,15,74,1,2,"no",0.759,"R","R",1,0.792
"1",1479,15,75,2,2,"no",0.741,"L","L",1,0.718
"1",1480,15,76,1,2,"no",0.836,"L","L",1,1.638
"1",1481,15,77,2,2,"no",0.946,"R","R",1,0.773
"1",1482,15,78,2,2,"no",0.672,"L","L",1,0.723
"1",1483,15,79,1,2,"no",0.699,"R","R",1,0.838
"1",1484,15,80,1,2,"no",0.604,"L","L",1,0.854
"1",1485,15,81,1,2,"no",0.58,"L","L",1,0.913
"1",1486,15,82,1,2,"no",0.624,"L","L",1,0.686
"1",1487,15,83,2,2,"no",0.722,"R","R",1,0.684
"1",1488,15,84,1,2,"no",0.898,"L","L",1,0.685
"1",1489,15,85,2,2,"no",0.845,"L","L",1,0.775
"1",1490,15,86,2,2,"no",0.724,"L","L",1,1.537
"1",1491,15,87,1,2,"no",0.53,"R","R",1,0.958
"1",1492,15,88,2,2,"no",0.552,"L","L",1,0.839
"1",1493,15,89,1,2,"no",0.7,"L","L",1,0.778
"1",1494,15,90,1,2,"no",0.528,"R","R",1,1.743
"1",1495,15,91,2,2,"no",0.883,"L","L",1,0.978
"1",1496,15,92,2,2,"no",0.66,"R","R",1,0.652
"1",1497,15,93,2,2,"no",0.678,"L","L",1,0.69
"1",1498,15,94,2,2,"no",0.895,"L","L",1,0.735
"1",1499,15,95,2,2,"no",0.703,"L","L",1,0.634
"1",1500,15,96,2,2,"no",0.859,"L","L",1,0.94
"1",1501,15,97,1,2,"no",0.879,"R","R",1,1.726
"1",1502,15,98,2,2,"no",0.962,"R","R",1,1.321
"1",1503,15,99,2,2,"no",0.914,"L","L",1,0.842
"1",1504,15,100,2,2,"no",0.63,"R","R",1,0.907
"1",1505,15,101,2,2,"no",0.631,"L","L",1,0.666
"1",1506,15,102,1,2,"no",0.583,"L","L",1,0.858
"1",1507,15,103,2,2,"no",0.944,"R","L",0,0.787
"1",1508,15,104,2,2,"no",0.503,"R","R",1,0.667
"1",1509,15,105,2,2,"no",0.643,"L","L",1,0.702
"1",1510,15,106,1,2,"no",0.561,"R","L",0,0.891
"1",1511,15,107,2,2,"no",0.788,"L","L",1,0.844
"1",1512,15,108,1,2,"no",0.889,"L","L",1,0.823
"1",1513,15,109,2,2,"no",0.889,"L","L",1,0.773
"1",1514,15,110,2,2,"no",0.877,"R","R",1,1.011
"1",1515,15,111,1,2,"no",0.887,"L","R",0,2.039
"1",1516,15,112,1,2,"no",0.674,"L","L",1,1.86
"1",1517,15,113,2,2,"no",0.613,"R","R",1,0.791
"1",1518,15,114,1,2,"no",0.696,"L","L",1,1.013
"1",1519,15,115,1,2,"no",0.517,"L","L",1,1.008
"1",1520,15,116,2,2,"no",0.944,"R","R",1,0.653
"1",1521,15,117,2,2,"no",0.895,"R","R",1,0.735
"1",1522,15,118,2,2,"no",0.558,"R","R",1,0.635
"1",1523,15,119,2,2,"no",0.655,"R","R",1,0.684
"1",1524,15,120,1,2,"no",0.864,"R","R",1,1.009
"1",1525,15,121,1,2,"no",0.707,"R","R",1,2.274
"1",1526,15,122,2,2,"no",0.635,"L","L",1,0.653
"1",1527,15,123,2,2,"no",0.91,"L","L",1,0.641
"1",1528,15,124,1,2,"no",0.732,"L","L",1,0.775
"1",1529,15,125,2,2,"no",0.532,"R","R",1,0.687
"1",1530,15,126,1,2,"no",0.737,"R","R",1,0.957
"1",1531,15,127,2,2,"no",0.989,"L","L",1,0.618
"1",1532,15,128,1,2,"no",0.745,"L","L",1,0.895
"1",1533,15,129,1,2,"no",0.512,"L","L",1,1.094
"1",1534,15,130,1,2,"no",0.95,"R","L",0,0.905
"1",1535,15,131,1,2,"no",0.639,"R","R",1,1.085
"1",1536,15,132,2,2,"no",0.712,"R","R",1,0.686
"1",1537,15,133,1,2,"no",0.582,"R","L",0,0.707
"1",1538,15,134,2,2,"no",0.894,"R","R",1,0.635
"1",1539,15,135,1,2,"no",0.853,"R","R",1,0.888
"1",1540,15,136,1,2,"no",0.543,"L","L",1,1.371
"1",1541,15,137,1,2,"no",0.824,"L","L",1,1.979
"1",1542,15,138,1,2,"no",0.649,"R","L",0,2.067
"1",1543,15,139,2,2,"no",0.881,"L","L",1,0.601
"1",1544,15,140,2,2,"no",0.759,"L","L",1,0.857
"1",1545,15,141,1,2,"no",0.691,"R","R",1,0.788
"1",1546,15,142,1,2,"no",0.649,"R","R",1,0.992
"1",1547,15,143,1,2,"no",0.546,"L","R",0,0.687
"1",1548,15,144,2,2,"no",0.898,"R","R",1,0.617
"1",1549,15,145,1,2,"no",0.944,"L","L",1,1.527
"1",1550,15,146,2,2,"no",0.523,"L","L",1,0.721
"1",1551,15,147,1,2,"no",0.845,"L","R",0,1.009
"1",1552,15,148,2,2,"no",0.872,"R","R",1,0.839
"1",1553,15,149,1,2,"no",0.537,"L","R",0,1.403
"1",1554,15,150,1,2,"no",0.891,"L","L",1,2.167
"1",1555,15,151,1,2,"no",0.91,"R","R",1,1.234
"1",1556,15,152,2,2,"no",0.663,"L","L",1,1.488
"1",1557,15,153,2,2,"no",0.619,"R","R",1,0.719
"1",1558,15,154,1,2,"no",0.923,"R","R",1,0.89
"1",1559,15,155,1,2,"no",0.786,"R","R",1,1.466
"1",1560,15,156,1,2,"no",0.868,"L","R",0,1.558
"1",1561,16,1,2,1,"no",0.945,"L","L",1,0.445
"1",1562,16,2,1,1,"no",0.776,"L","L",1,0.683
"1",1563,16,3,1,1,"no",0.62,"L","R",0,0.452
"1",1564,16,4,1,1,"no",0.904,"R","R",1,0.666
"1",1565,16,5,1,1,"no",0.902,"R","R",1,0.481
"1",1566,16,6,2,1,"no",0.929,"L","L",1,0.704
"1",1567,16,7,2,1,"no",0.671,"R","R",1,0.532
"1",1568,16,8,1,1,"no",0.727,"L","L",1,0.807
"1",1569,16,9,1,1,"no",0.656,"R","R",1,0.529
"1",1570,16,10,2,1,"no",0.685,"L","L",1,0.569
"1",1571,16,11,1,1,"no",0.885,"R","R",1,0.666
"1",1572,16,12,1,1,"no",0.56,"R","R",1,0.773
"1",1573,16,13,1,1,"no",0.745,"R","R",1,0.484
"1",1574,16,14,2,1,"no",0.924,"L","L",1,0.515
"1",1575,16,15,1,1,"no",0.867,"L","L",1,0.529
"1",1576,16,16,1,1,"no",0.946,"L","L",1,0.462
"1",1577,16,17,1,1,"no",0.503,"L","L",1,0.651
"1",1578,16,18,1,1,"no",0.988,"R","L",0,0.358
"1",1579,16,19,1,1,"no",0.932,"R","R",1,0.567
"1",1580,16,20,1,1,"no",0.844,"R","R",1,0.483
"1",1581,16,21,1,1,"no",0.958,"L","R",0,0.57
"1",1582,16,22,1,1,"no",0.777,"R","R",1,0.55
"1",1583,16,23,1,1,"no",0.812,"L","L",1,0.45
"1",1584,16,24,1,1,"no",0.874,"R","L",0,0.479
"1",1585,16,25,1,1,"no",0.775,"L","L",1,0.532
"1",1586,16,26,1,1,"no",0.657,"L","L",1,0.485
"1",1587,16,27,2,1,"no",0.983,"R","L",0,0.397
"1",1588,16,28,2,1,"no",0.708,"R","R",1,0.462
"1",1589,16,29,2,1,"no",0.565,"R","L",0,0.619
"1",1590,16,30,2,1,"no",0.867,"L","L",1,0.618
"1",1591,16,31,1,1,"no",0.919,"R","L",0,0.588
"1",1592,16,32,1,1,"no",0.732,"L","R",0,0.397
"1",1593,16,33,1,1,"no",0.726,"L","L",1,0.446
"1",1594,16,34,2,1,"no",0.516,"L","L",1,0.563
"1",1595,16,35,1,1,"no",0.576,"L","L",1,0.535
"1",1596,16,36,2,1,"no",0.905,"L","L",1,0.552
"1",1597,16,37,1,1,"no",0.81,"L","R",0,0.617
"1",1598,16,38,2,1,"no",0.778,"R","R",1,0.515
"1",1599,16,39,1,1,"no",0.51,"R","R",1,0.568
"1",1600,16,40,1,1,"no",0.912,"L","R",0,0.584
"1",1601,16,41,2,1,"no",0.93,"R","R",1,0.378
"1",1602,16,42,1,1,"no",0.708,"R","R",1,0.565
"1",1603,16,43,1,1,"no",0.758,"L","R",0,0.463
"1",1604,16,44,1,1,"no",0.903,"R","R",1,0.342
"1",1605,16,45,2,1,"no",0.856,"R","R",1,0.376
"1",1606,16,46,1,1,"no",0.606,"R","R",1,0.519
"1",1607,16,47,2,1,"no",0.79,"L","L",1,0.585
"1",1608,16,48,2,1,"no",0.603,"L","L",1,0.6
"1",1609,16,49,2,1,"no",0.552,"L","L",1,0.597
"1",1610,16,50,1,1,"no",0.698,"L","L",1,0.463
"1",1611,16,51,2,1,"no",0.985,"L","L",1,0.651
"1",1612,16,52,2,1,"no",0.761,"L","R",0,0.45
"1",1613,16,53,2,1,"no",0.639,"L","L",1,0.584
"1",1614,16,54,1,1,"no",0.761,"L","L",1,0.536
"1",1615,16,55,2,1,"no",0.962,"R","R",1,0.548
"1",1616,16,56,2,1,"no",0.605,"L","L",1,0.652
"1",1617,16,57,2,1,"no",0.619,"R","L",0,0.585
"1",1618,16,58,1,1,"no",0.809,"R","L",0,0.548
"1",1619,16,59,2,1,"no",0.584,"L","R",0,0.566
"1",1620,16,60,1,1,"no",0.913,"R","L",0,0.415
"1",1621,16,61,1,1,"no",0.871,"R","L",0,0.411
"1",1622,16,62,2,1,"no",0.569,"L","L",1,0.6
"1",1623,16,63,2,1,"no",0.694,"R","R",1,0.462
"1",1624,16,64,2,1,"no",0.573,"R","R",1,0.601
"1",1625,16,65,1,1,"no",0.738,"L","L",1,0.539
"1",1626,16,66,2,1,"no",0.881,"R","R",1,0.551
"1",1627,16,67,2,1,"no",0.558,"R","R",1,0.653
"1",1628,16,68,2,1,"no",0.705,"R","R",1,0.546
"1",1629,16,69,1,1,"no",0.863,"L","L",1,0.581
"1",1630,16,70,2,1,"no",0.742,"R","R",1,0.501
"1",1631,16,71,2,1,"no",0.614,"L","R",0,0.563
"1",1632,16,72,2,1,"no",0.981,"R","R",1,0.515
"1",1633,16,73,2,1,"no",0.842,"L","R",0,0.326
"1",1634,16,74,2,1,"no",0.816,"R","R",1,0.581
"1",1635,16,75,2,1,"no",0.627,"L","R",0,0.649
"1",1636,16,76,2,1,"no",0.934,"L","R",0,0.992
"1",1637,16,77,2,1,"no",0.871,"R","R",1,0.635
"1",1638,16,78,1,1,"no",0.799,"L","L",1,0.52
"1",1639,16,79,1,1,"no",0.984,"L","L",1,0.552
"1",1640,16,80,1,1,"no",0.947,"R","L",0,0.394
"1",1641,16,81,2,1,"no",0.625,"L","R",0,0.567
"1",1642,16,82,2,1,"no",0.63,"L","R",0,0.6
"1",1643,16,83,1,1,"no",0.99,"R","L",0,0.41
"1",1644,16,84,2,1,"no",0.948,"R","R",1,0.531
"1",1645,16,85,1,1,"no",0.857,"L","R",0,0.465
"1",1646,16,86,1,1,"no",0.918,"L","L",1,0.776
"1",1647,16,87,1,1,"no",0.6,"R","R",1,0.638
"1",1648,16,88,2,1,"no",0.754,"R","R",1,0.482
"1",1649,16,89,1,1,"no",0.963,"L","L",1,0.469
"1",1650,16,90,2,1,"no",0.571,"R","R",1,0.529
"1",1651,16,91,1,1,"no",0.831,"L","R",0,0.549
"1",1652,16,92,1,1,"no",0.581,"R","R",1,0.501
"1",1653,16,93,1,1,"no",0.592,"R","R",1,0.511
"1",1654,16,94,2,1,"no",0.826,"R","R",1,0.635
"1",1655,16,95,2,1,"no",0.671,"L","L",1,0.566
"1",1656,16,96,2,1,"no",0.603,"R","R",1,0.649
"1",1657,16,97,2,1,"no",0.86,"R","R",1,0.6
"1",1658,16,98,2,1,"no",0.686,"R","R",1,0.551
"1",1659,16,99,2,1,"no",0.635,"R","R",1,0.451
"1",1660,16,100,2,1,"no",0.724,"L","L",1,0.702
"1",1661,16,101,1,1,"no",0.777,"L","R",0,0.652
"1",1662,16,102,1,1,"no",0.512,"R","R",1,0.775
"1",1663,16,103,2,1,"no",0.616,"L","L",1,0.636
"1",1664,16,104,2,1,"no",0.918,"R","L",0,0.702
"1",1665,16,105,2,1,"no",0.976,"R","R",1,0.588
"1",1666,16,106,2,1,"no",0.74,"R","R",1,0.651
"1",1667,16,107,1,1,"no",0.9,"L","R",0,0.462
"1",1668,16,108,2,1,"no",0.974,"L","R",0,0.445
"1",1669,16,109,2,1,"no",0.765,"R","R",1,0.619
"1",1670,16,110,2,1,"no",0.578,"R","L",0,0.77
"1",1671,16,111,1,1,"no",0.684,"R","L",0,0.655
"1",1672,16,112,2,1,"no",0.677,"R","R",1,0.534
"1",1673,16,113,2,1,"no",0.629,"R","R",1,0.718
"1",1674,16,114,1,1,"no",0.545,"R","R",1,0.941
"1",1675,16,115,1,1,"no",0.77,"R","R",1,0.497
"1",1676,16,116,2,1,"no",0.822,"L","L",1,0.515
"1",1677,16,117,2,1,"no",0.579,"L","L",1,0.67
"1",1678,16,118,1,1,"no",0.937,"L","L",1,0.652
"1",1679,16,119,2,1,"no",0.642,"R","R",1,0.615
"1",1680,16,120,2,1,"no",0.793,"L","L",1,0.591
"1",1681,16,121,2,1,"no",0.655,"L","R",0,0.514
"1",1682,16,122,1,1,"no",0.969,"R","L",0,0.966
"1",1683,16,123,1,1,"no",0.649,"R","R",1,0.519
"1",1684,16,124,2,1,"no",0.96,"L","L",1,0.536
"1",1685,16,125,1,1,"no",0.921,"R","R",1,0.385
"1",1686,16,126,1,1,"no",0.939,"L","L",1,0.419
"1",1687,16,127,1,1,"no",0.577,"L","R",0,0.74
"1",1688,16,128,1,1,"no",0.818,"R","R",1,0.376
"1",1689,16,129,1,1,"no",0.927,"L","L",1,0.6
"1",1690,16,130,1,1,"no",0.649,"R","R",1,0.359
"1",1691,16,131,2,1,"no",0.737,"L","R",0,0.342
"1",1692,16,132,2,1,"no",0.817,"R","R",1,0.445
"1",1693,16,133,1,1,"no",0.759,"R","R",1,0.563
"1",1694,16,134,1,1,"no",0.916,"R","R",1,0.546
"1",1695,16,135,1,1,"no",0.623,"L","L",1,0.462
"1",1696,16,136,2,1,"no",0.766,"L","L",1,0.463
"1",1697,16,137,1,1,"no",0.701,"R","R",1,0.546
"1",1698,16,138,1,1,"no",0.614,"L","L",1,0.415
"1",1699,16,139,1,1,"no",0.937,"R","R",1,0.325
"1",1700,16,140,1,1,"no",0.608,"R","R",1,0.554
"1",1701,16,141,1,1,"no",0.773,"R","R",1,0.428
"1",1702,16,142,1,1,"no",0.742,"L","L",1,0.505
"1",1703,16,143,2,1,"no",0.985,"L","R",0,0.411
"1",1704,16,144,2,1,"no",0.909,"L","L",1,0.532
"1",1705,16,145,2,1,"no",0.955,"R","R",1,0.515
"1",1706,16,146,2,1,"no",0.657,"L","L",1,0.567
"1",1707,16,147,1,1,"no",0.52,"L","L",1,0.632
"1",1708,16,148,2,1,"no",0.899,"L","L",1,0.551
"1",1709,16,149,2,1,"no",0.735,"L","L",1,0.378
"1",1710,16,150,2,1,"no",0.652,"R","L",0,0.496
"1",1711,16,151,1,1,"no",0.671,"L","R",0,0.445
"1",1712,16,152,2,1,"no",0.519,"R","R",1,0.483
"1",1713,16,153,2,1,"no",0.794,"R","R",1,0.483
"1",1714,16,154,2,1,"no",0.991,"L","L",1,0.379
"1",1715,16,155,1,1,"no",0.94,"L","R",0,0.428
"1",1716,16,156,1,1,"no",0.963,"L","R",0,0.706
"1",1717,17,1,2,1,"left",0.813,"L","L",1,0.428
"1",1718,17,2,2,1,"left",0.973,"L","L",1,0.432
"1",1719,17,3,2,1,"left",0.668,"L","L",1,0.446
"1",1720,17,4,1,1,"left",0.679,"R","L",0,0.445
"1",1721,17,5,2,1,"left",0.696,"L","L",1,0.415
"1",1722,17,6,2,1,"left",0.551,"L","L",1,0.498
"1",1723,17,7,2,1,"left",0.796,"L","L",1,0.415
"1",1724,17,8,2,1,"left",0.834,"R","L",0,0.432
"1",1725,17,9,1,1,"left",0.545,"L","R",0,0.636
"1",1726,17,10,1,1,"left",0.508,"R","L",0,0.463
"1",1727,17,11,1,1,"left",0.906,"L","R",0,0.496
"1",1728,17,12,1,1,"left",0.575,"L","L",1,0.652
"1",1729,17,13,2,1,"left",0.535,"L","L",1,0.618
"1",1730,17,14,1,1,"left",0.504,"L","L",1,0.805
"1",1731,17,15,2,1,"left",0.567,"R","L",0,0.413
"1",1732,17,16,2,1,"left",0.622,"L","L",1,0.55
"1",1733,17,17,1,1,"left",0.815,"L","L",1,0.873
"1",1734,17,18,2,1,"left",0.896,"R","R",1,0.418
"1",1735,17,19,1,1,"left",0.599,"R","L",0,0.562
"1",1736,17,20,1,1,"left",0.853,"R","R",1,0.513
"1",1737,17,21,1,1,"left",0.588,"R","R",1,0.534
"1",1738,17,22,2,1,"left",0.814,"L","L",1,0.462
"1",1739,17,23,1,1,"left",0.81,"L","L",1,0.397
"1",1740,17,24,2,1,"left",0.826,"L","L",1,0.399
"1",1741,17,25,1,1,"left",0.975,"R","R",1,0.634
"1",1742,17,26,2,1,"left",0.901,"R","R",1,0.308
"1",1743,17,27,1,1,"left",0.956,"L","R",0,0.394
"1",1744,17,28,1,1,"left",0.741,"L","R",0,0.397
"1",1745,17,29,2,1,"left",0.886,"L","L",1,0.308
"1",1746,17,30,2,1,"left",0.784,"L","L",1,0.4
"1",1747,17,31,1,1,"left",0.746,"R","L",0,0.363
"1",1748,17,32,2,1,"left",0.828,"R","R",1,0.449
"1",1749,17,33,1,1,"left",0.847,"L","R",0,0.278
"1",1750,17,34,2,1,"left",0.725,"L","R",0,0.359
"1",1751,17,35,1,1,"left",0.546,"L","R",0,0.428
"1",1752,17,36,1,1,"left",0.551,"R","L",0,0.651
"1",1753,17,37,2,1,"left",0.813,"R","R",1,0.359
"1",1754,17,38,1,1,"left",0.575,"L","R",0,0.414
"1",1755,17,39,1,1,"left",0.981,"R","L",0,0.327
"1",1756,17,40,1,1,"left",0.555,"L","R",0,0.418
"1",1757,17,41,2,1,"left",0.631,"R","R",1,0.359
"1",1758,17,42,2,1,"left",0.863,"R","R",1,0.292
"1",1759,17,43,2,1,"left",0.589,"L","R",0,0.382
"1",1760,17,44,1,1,"left",0.538,"L","R",0,0.413
"1",1761,17,45,2,1,"left",0.791,"R","L",0,0.325
"1",1762,17,46,2,1,"left",0.601,"R","R",1,0.307
"1",1763,17,47,1,1,"left",0.67,"L","R",0,0.325
"1",1764,17,48,2,1,"left",0.868,"L","R",0,0.396
"1",1765,17,49,1,1,"left",0.632,"L","L",1,0.667
"1",1766,17,50,1,1,"left",0.597,"R","R",1,0.462
"1",1767,17,51,2,1,"left",0.797,"L","L",1,0.383
"1",1768,17,52,1,1,"left",0.924,"L","L",1,0.409
"1",1769,17,53,1,1,"left",0.753,"R","L",0,0.605
"1",1770,17,54,1,1,"left",0.885,"L","L",1,0.394
"1",1771,17,55,1,1,"left",0.87,"L","R",0,0.309
"1",1772,17,56,2,1,"left",0.679,"L","R",0,0.364
"1",1773,17,57,2,1,"left",0.877,"L","R",0,0.311
"1",1774,17,58,2,1,"left",0.976,"L","L",1,0.429
"1",1775,17,59,1,1,"left",0.523,"L","R",0,0.546
"1",1776,17,60,2,1,"left",0.76,"L","L",1,0.448
"1",1777,17,61,1,1,"left",0.536,"L","L",1,0.397
"1",1778,17,62,2,1,"left",0.515,"L","L",1,0.446
"1",1779,17,63,1,1,"left",0.726,"L","L",1,0.394
"1",1780,17,64,1,1,"left",0.837,"R","L",0,0.74
"1",1781,17,65,1,1,"left",0.738,"L","R",0,0.4
"1",1782,17,66,2,1,"left",0.749,"R","L",0,0.395
"1",1783,17,67,1,1,"left",0.701,"L","L",1,0.462
"1",1784,17,68,1,1,"left",0.544,"R","L",0,0.479
"1",1785,17,69,1,1,"left",0.632,"R","R",1,0.325
"1",1786,17,70,2,1,"left",0.68,"L","R",0,0.687
"1",1787,17,71,2,1,"left",0.939,"L","L",1,0.364
"1",1788,17,72,1,1,"left",0.738,"L","R",0,0.601
"1",1789,17,73,1,1,"left",0.578,"L","L",1,0.394
"1",1790,17,74,2,1,"left",0.989,"L","R",0,0.319
"1",1791,17,75,1,1,"left",0.883,"L","L",1,0.275
"1",1792,17,76,2,1,"left",0.936,"L","L",1,0.445
"1",1793,17,77,2,1,"left",0.622,"L","L",1,0.398
"1",1794,17,78,1,1,"left",0.509,"L","R",0,0.412
"1",1795,17,79,1,1,"left",0.81,"L","L",1,0.363
"1",1796,17,80,1,1,"left",0.649,"R","L",0,0.312
"1",1797,17,81,1,1,"left",0.699,"R","L",0,0.383
"1",1798,17,82,2,1,"left",0.874,"R","L",0,0.325
"1",1799,17,83,2,1,"left",0.712,"R","R",1,0.398
"1",1800,17,84,1,1,"left",0.535,"R","L",0,0.531
"1",1801,17,85,2,1,"left",0.902,"R","R",1,0.496
"1",1802,17,86,2,1,"left",0.763,"L","L",1,0.464
"1",1803,17,87,1,1,"left",0.684,"R","R",1,0.415
"1",1804,17,88,2,1,"left",0.724,"R","L",0,0.548
"1",1805,17,89,1,1,"left",0.656,"L","R",0,0.325
"1",1806,17,90,2,1,"left",0.963,"L","L",1,0.346
"1",1807,17,91,1,1,"left",0.954,"R","L",0,0.395
"1",1808,17,92,2,1,"left",0.729,"R","R",1,0.431
"1",1809,17,93,2,1,"left",0.524,"R","L",0,0.548
"1",1810,17,94,1,1,"left",0.626,"L","R",0,0.378
"1",1811,17,95,2,1,"left",0.562,"L","L",1,0.415
"1",1812,17,96,2,1,"left",0.844,"R","L",0,0.342
"1",1813,17,97,1,1,"left",0.771,"L","R",0,0.313
"1",1814,17,98,2,1,"left",0.837,"R","R",1,0.309
"1",1815,17,99,1,1,"left",0.839,"L","R",0,0.411
"1",1816,17,100,1,1,"left",0.88,"L","R",0,0.296
"1",1817,17,101,2,1,"left",0.672,"L","R",0,0.497
"1",1818,17,102,2,1,"left",0.541,"L","L",1,0.367
"1",1819,17,103,2,1,"left",0.539,"L","R",0,0.484
"1",1820,17,104,2,1,"left",0.878,"L","L",1,0.395
"1",1821,17,105,2,1,"left",0.934,"L","R",0,0.466
"1",1822,17,106,1,1,"left",0.747,"L","L",1,0.585
"1",1823,17,107,1,1,"left",0.555,"L","L",1,0.498
"1",1824,17,108,1,1,"left",0.955,"L","R",0,0.38
"1",1825,17,109,2,1,"left",0.784,"R","L",0,0.367
"1",1826,17,110,1,1,"left",0.73,"L","L",1,0.411
"1",1827,17,111,1,1,"left",0.858,"R","L",0,0.396
"1",1828,17,112,2,1,"left",0.678,"L","L",1,0.411
"1",1829,17,113,2,1,"left",0.794,"L","L",1,0.428
"1",1830,17,114,2,1,"left",0.592,"L","L",1,0.394
"1",1831,17,115,2,1,"left",0.651,"L","L",1,0.553
"1",1832,17,116,1,1,"left",0.842,"L","L",1,0.345
"1",1833,17,117,1,1,"left",0.948,"L","R",0,0.364
"1",1834,17,118,2,1,"left",0.663,"L","L",1,0.552
"1",1835,17,119,2,1,"left",0.504,"L","L",1,0.48
"1",1836,17,120,1,1,"left",0.928,"L","L",1,0.325
"1",1837,17,121,2,1,"left",0.84,"R","L",0,0.359
"1",1838,17,122,1,1,"left",0.69,"L","R",0,0.548
"1",1839,17,123,1,1,"left",0.641,"R","R",1,0.514
"1",1840,17,124,1,1,"left",0.954,"R","R",1,0.652
"1",1841,17,125,1,1,"left",0.785,"L","R",0,0.483
"1",1842,17,126,1,1,"left",0.825,"R","L",0,0.465
"1",1843,17,127,1,1,"left",0.822,"L","L",1,0.821
"1",1844,17,128,2,1,"left",0.65,"R","R",1,0.499
"1",1845,17,129,1,1,"left",0.712,"L","L",1,0.519
"1",1846,17,130,2,1,"left",0.712,"L","R",0,0.359
"1",1847,17,131,1,1,"left",0.537,"L","L",1,0.448
"1",1848,17,132,1,1,"left",0.871,"R","L",0,0.342
"1",1849,17,133,2,1,"left",0.909,"L","R",0,0.226
"1",1850,17,134,2,1,"left",0.98,"L","R",0,0.259
"1",1851,17,135,1,1,"left",0.84,"L","R",0,0.258
"1",1852,17,136,1,1,"left",0.766,"L","R",0,0.501
"1",1853,17,137,2,1,"left",0.773,"L","L",1,0.537
"1",1854,17,138,2,1,"left",0.944,"R","L",0,0.655
"1",1855,17,139,2,1,"left",0.831,"L","L",1,0.53
"1",1856,17,140,2,1,"left",0.597,"L","L",1,0.375
"1",1857,17,141,2,1,"left",0.539,"L","L",1,0.431
"1",1858,17,142,1,1,"left",0.655,"L","L",1,0.411
"1",1859,17,143,2,1,"left",0.839,"L","L",1,0.498
"1",1860,17,144,2,1,"left",0.747,"R","L",0,0.397
"1",1861,17,145,2,1,"left",0.822,"L","L",1,0.363
"1",1862,17,146,2,1,"left",0.549,"L","L",1,0.449
"1",1863,17,147,2,1,"left",0.581,"L","L",1,0.381
"1",1864,17,148,1,1,"left",0.675,"L","L",1,0.394
"1",1865,17,149,1,1,"left",0.95,"L","R",0,0.348
"1",1866,17,150,2,1,"left",0.941,"R","L",0,0.428
"1",1867,17,151,2,1,"left",0.831,"R","R",1,0.345
"1",1868,17,152,1,1,"left",0.943,"R","L",0,0.348
"1",1869,17,153,1,1,"left",0.742,"L","L",1,0.412
"1",1870,17,154,1,1,"left",0.878,"L","L",1,0.515
"1",1871,17,155,2,1,"left",0.941,"L","R",0,0.241
"1",1872,17,156,1,1,"left",0.66,"R","L",0,0.381
"1",1873,18,1,1,2,"left",0.56,"L","R",0,0.89
"1",1874,18,2,1,2,"left",0.917,"L","R",0,1.128
"1",1875,18,3,1,2,"left",0.971,"L","L",1,0.567
"1",1876,18,4,2,2,"left",0.866,"L","L",1,0.944
"1",1877,18,5,2,2,"left",0.965,"L","L",1,0.649
"1",1878,18,6,2,2,"left",0.801,"L","L",1,1.051
"1",1879,18,7,1,2,"left",0.772,"R","R",1,0.898
"1",1880,18,8,1,2,"left",0.869,"R","R",1,0.615
"1",1881,18,9,1,2,"left",0.676,"L","R",0,0.912
"1",1882,18,10,1,2,"left",0.777,"L","L",1,1.768
"1",1883,18,11,2,2,"left",0.578,"L","L",1,0.91
"1",1884,18,12,2,2,"left",0.871,"R","R",1,0.975
"1",1885,18,13,1,2,"left",0.756,"R","R",1,0.873
"1",1886,18,14,1,2,"left",0.861,"L","L",1,1.114
"1",1887,18,15,1,2,"left",0.851,"L","L",1,0.943
"1",1888,18,16,1,2,"left",0.654,"L","L",1,1.059
"1",1889,18,17,1,2,"left",0.585,"R","L",0,1.219
"1",1890,18,18,1,2,"left",0.682,"R","R",1,0.822
"1",1891,18,19,1,2,"left",0.995,"R","R",1,0.669
"1",1892,18,20,1,2,"left",0.996,"L","L",1,0.913
"1",1893,18,21,2,2,"left",0.718,"R","R",1,0.55
"1",1894,18,22,2,2,"left",0.982,"R","R",1,0.621
"1",1895,18,23,2,2,"left",0.634,"L","L",1,0.585
"1",1896,18,24,1,2,"left",0.627,"R","R",1,0.686
"1",1897,18,25,1,2,"left",0.724,"R","R",1,0.76
"1",1898,18,26,2,2,"left",0.833,"R","R",1,0.788
"1",1899,18,27,2,2,"left",0.509,"L","L",1,0.719
"1",1900,18,28,2,2,"left",0.927,"L","L",1,1.23
"1",1901,18,29,2,2,"left",0.854,"L","L",1,1.015
"1",1902,18,30,2,2,"left",0.502,"L","L",1,1.399
"1",1903,18,31,2,2,"left",0.939,"R","R",1,0.601
"1",1904,18,32,1,2,"left",0.725,"L","L",1,0.756
"1",1905,18,33,1,2,"left",0.836,"L","L",1,1.452
"1",1906,18,34,2,2,"left",0.504,"R","R",1,0.669
"1",1907,18,35,1,2,"left",0.977,"L","L",1,0.807
"1",1908,18,36,1,2,"left",0.645,"L","L",1,1.2
"1",1909,18,37,1,2,"left",0.947,"L","L",1,1.059
"1",1910,18,38,1,2,"left",0.732,"L","L",1,0.7
"1",1911,18,39,2,2,"left",0.795,"L","L",1,0.878
"1",1912,18,40,1,2,"left",0.666,"L","L",1,0.619
"1",1913,18,41,1,2,"left",0.634,"L","R",0,0.687
"1",1914,18,42,2,2,"left",0.719,"L","L",1,1.111
"1",1915,18,43,2,2,"left",0.546,"L","L",1,0.602
"1",1916,18,44,1,2,"left",0.907,"R","L",0,0.6
"1",1917,18,45,2,2,"left",0.643,"R","R",1,0.567
"1",1918,18,46,2,2,"left",0.654,"L","L",1,0.637
"1",1919,18,47,2,2,"left",0.858,"L","L",1,0.553
"1",1920,18,48,2,2,"left",0.656,"L","L",1,0.683
"1",1921,18,49,2,2,"left",0.678,"L","L",1,0.737
"1",1922,18,50,1,2,"left",0.571,"L","L",1,0.805
"1",1923,18,51,1,2,"left",0.651,"R","R",1,0.632
"1",1924,18,52,1,2,"left",0.562,"L","L",1,0.582
"1",1925,18,53,1,2,"left",0.54,"L","R",0,0.718
"1",1926,18,54,2,2,"left",0.957,"L","L",1,0.565
"1",1927,18,55,2,2,"left",0.898,"L","R",0,0.53
"1",1928,18,56,1,2,"left",0.913,"R","R",1,0.943
"1",1929,18,57,1,2,"left",0.85,"L","L",1,0.583
"1",1930,18,58,1,2,"left",0.578,"R","R",1,0.743
"1",1931,18,59,2,2,"left",0.933,"L","L",1,0.662
"1",1932,18,60,1,2,"left",0.777,"L","L",1,0.618
"1",1933,18,61,1,2,"left",0.856,"L","R",0,0.585
"1",1934,18,62,1,2,"left",0.869,"L","L",1,1.864
"1",1935,18,63,1,2,"left",0.676,"L","L",1,1.302
"1",1936,18,64,1,2,"left",0.86,"L","L",1,2.019
"1",1937,18,65,1,2,"left",0.939,"L","L",1,0.922
"1",1938,18,66,1,2,"left",0.907,"L","L",1,1.337
"1",1939,18,67,1,2,"left",0.507,"R","L",0,1.319
"1",1940,18,68,1,2,"left",0.555,"L","L",1,1.028
"1",1941,18,69,1,2,"left",0.508,"R","R",1,0.856
"1",1942,18,70,1,2,"left",0.83,"R","R",1,0.719
"1",1943,18,71,1,2,"left",0.594,"L","L",1,0.888
"1",1944,18,72,2,2,"left",0.913,"R","R",1,0.701
"1",1945,18,73,2,2,"left",0.525,"R","R",1,0.741
"1",1946,18,74,1,2,"left",0.857,"L","L",1,0.873
"1",1947,18,75,1,2,"left",0.975,"L","R",0,0.636
"1",1948,18,76,2,2,"left",0.652,"L","L",1,0.978
"1",1949,18,77,2,2,"left",0.874,"L","L",1,0.774
"1",1950,18,78,2,2,"left",0.726,"R","R",1,0.692
"1",1951,18,79,1,2,"left",0.773,"L","L",1,0.761
"1",1952,18,80,2,2,"left",0.594,"L","L",1,0.734
"1",1953,18,81,2,2,"left",0.844,"R","R",1,0.702
"1",1954,18,82,2,2,"left",0.931,"L","L",1,0.737
"1",1955,18,83,2,2,"left",0.732,"L","L",1,0.701
"1",1956,18,84,1,2,"left",0.925,"R","R",1,0.701
"1",1957,18,85,1,2,"left",0.754,"R","R",1,0.686
"1",1958,18,86,2,2,"left",0.663,"R","R",1,0.841
"1",1959,18,87,1,2,"left",0.839,"L","L",1,2.006
"1",1960,18,88,2,2,"left",0.83,"R","R",1,0.718
"1",1961,18,89,1,2,"left",0.721,"L","R",0,0.808
"1",1962,18,90,1,2,"left",0.59,"L","R",0,0.86
"1",1963,18,91,2,2,"left",0.551,"L","L",1,1.386
"1",1964,18,92,2,2,"left",0.908,"L","L",1,0.807
"1",1965,18,93,1,2,"left",0.638,"L","L",1,0.823
"1",1966,18,94,2,2,"left",0.745,"L","L",1,1.009
"1",1967,18,95,1,2,"left",0.652,"R","R",1,1.061
"1",1968,18,96,1,2,"left",0.762,"L","L",1,1.098
"1",1969,18,97,1,2,"left",0.648,"L","L",1,2.019
"1",1970,18,98,2,2,"left",0.83,"L","L",1,1.075
"1",1971,18,99,2,2,"left",0.691,"L","L",1,0.975
"1",1972,18,100,2,2,"left",0.559,"L","L",1,0.93
"1",1973,18,101,2,2,"left",0.826,"L","L",1,1.008
"1",1974,18,102,2,2,"left",0.808,"L","L",1,0.979
"1",1975,18,103,2,2,"left",0.642,"L","L",1,0.822
"1",1976,18,104,2,2,"left",0.524,"L","L",1,0.688
"1",1977,18,105,1,2,"left",0.913,"L","L",1,1.793
"1",1978,18,106,2,2,"left",0.94,"R","R",1,0.788
"1",1979,18,107,1,2,"left",0.971,"L","L",1,1.238
"1",1980,18,108,2,2,"left",0.641,"L","L",1,0.754
"1",1981,18,109,1,2,"left",0.789,"R","R",1,0.717
"1",1982,18,110,2,2,"left",0.974,"L","L",1,0.755
"1",1983,18,111,2,2,"left",0.993,"L","L",1,0.651
"1",1984,18,112,1,2,"left",0.502,"R","R",1,1.044
"1",1985,18,113,2,2,"left",0.735,"R","L",0,1.197
"1",1986,18,114,2,2,"left",0.671,"L","L",1,2.508
"1",1987,18,115,2,2,"left",0.954,"R","R",1,0.771
"1",1988,18,116,1,2,"left",0.714,"L","L",1,1.044
"1",1989,18,117,1,2,"left",0.774,"L","L",1,1.029
"1",1990,18,118,2,2,"left",0.767,"L","L",1,0.91
"1",1991,18,119,2,2,"left",0.665,"L","L",1,1.612
"1",1992,18,120,1,2,"left",0.766,"L","L",1,0.676
"1",1993,18,121,2,2,"left",0.603,"R","R",1,0.709
"1",1994,18,122,1,2,"left",0.868,"R","R",1,1.233
"1",1995,18,123,2,2,"left",0.565,"L","L",1,0.738
"1",1996,18,124,2,2,"left",0.941,"L","R",0,0.856
"1",1997,18,125,1,2,"left",0.935,"L","L",1,0.992
"1",1998,18,126,1,2,"left",0.722,"L","L",1,0.71
"1",1999,18,127,1,2,"left",0.953,"L","L",1,0.804
"1",2000,18,128,2,2,"left",0.752,"R","R",1,0.737
"1",2001,18,129,1,2,"left",0.75,"R","R",1,0.703
"1",2002,18,130,2,2,"left",0.992,"R","R",1,0.807
"1",2003,18,131,2,2,"left",0.895,"R","R",1,0.756
"1",2004,18,132,2,2,"left",0.982,"R","L",0,0.737
"1",2005,18,133,2,2,"left",0.779,"R","R",1,0.806
"1",2006,18,134,2,2,"left",0.795,"R","R",1,0.825
"1",2007,18,135,2,2,"left",0.795,"L","L",1,0.931
"1",2008,18,136,2,2,"left",0.854,"L","L",1,0.704
"1",2009,18,137,1,2,"left",0.729,"R","R",1,1.034
"1",2010,18,138,2,2,"left",0.64,"L","L",1,0.79
"1",2011,18,139,2,2,"left",0.984,"L","L",1,0.907
"1",2012,18,140,2,2,"left",0.627,"R","R",1,0.756
"1",2013,18,141,1,2,"left",0.66,"R","R",1,0.824
"1",2014,18,142,1,2,"left",0.845,"R","R",1,0.788
"1",2015,18,143,2,2,"left",0.937,"R","R",1,0.701
"1",2016,18,144,1,2,"left",0.549,"L","R",0,0.957
"1",2017,18,145,2,2,"left",0.952,"L","L",1,0.823
"1",2018,18,146,2,2,"left",0.502,"L","L",1,0.652
"1",2019,18,147,1,2,"left",0.821,"L","L",1,0.719
"1",2020,18,148,1,2,"left",0.719,"L","L",1,0.722
"1",2021,18,149,1,2,"left",0.595,"L","L",1,0.812
"1",2022,18,150,2,2,"left",0.821,"L","L",1,1.354
"1",2023,18,151,2,2,"left",0.697,"L","L",1,0.718
"1",2024,18,152,1,2,"left",0.652,"R","R",1,0.635
"1",2025,18,153,2,2,"left",0.915,"L","L",1,0.702
"1",2026,18,154,1,2,"left",0.753,"L","L",1,0.907
"1",2027,18,155,2,2,"left",0.97,"R","R",1,1.966
"1",2028,18,156,2,2,"left",0.738,"L","L",1,1.043
"1",2029,19,1,1,2,"no",0.643,"R","R",1,0.856
"1",2030,19,2,2,2,"no",0.599,"L","L",1,0.685
"1",2031,19,3,2,2,"no",0.927,"R","R",1,0.566
"1",2032,19,4,2,2,"no",0.683,"L","L",1,0.704
"1",2033,19,5,1,2,"no",0.794,"L","L",1,1.663
"1",2034,19,6,1,2,"no",0.84,"L","L",1,1.011
"1",2035,19,7,1,2,"no",0.846,"R","R",1,0.615
"1",2036,19,8,1,2,"no",0.95,"R","R",1,0.775
"1",2037,19,9,2,2,"no",0.829,"R","R",1,0.808
"1",2038,19,10,2,2,"no",0.508,"L","L",1,0.735
"1",2039,19,11,1,2,"no",0.943,"L","R",0,0.702
"1",2040,19,12,1,2,"no",0.979,"L","L",1,2.293
"1",2041,19,13,2,2,"no",0.573,"L","L",1,1.094
"1",2042,19,14,2,2,"no",0.942,"L","R",0,0.879
"1",2043,19,15,1,2,"no",0.937,"R","R",1,0.669
"1",2044,19,16,1,2,"no",0.684,"L","L",1,0.804
"1",2045,19,17,1,2,"no",0.679,"L","L",1,1.979
"1",2046,19,18,2,2,"no",0.633,"R","R",1,0.922
"1",2047,19,19,2,2,"no",0.576,"R","R",1,0.671
"1",2048,19,20,1,2,"no",0.88,"R","R",1,1.885
"1",2049,19,21,2,2,"no",0.959,"L","R",0,1.096
"1",2050,19,22,1,2,"no",0.836,"R","R",1,0.879
"1",2051,19,23,1,2,"no",0.802,"L","L",1,0.719
"1",2052,19,24,2,2,"no",0.887,"R","R",1,0.754
"1",2053,19,25,2,2,"no",0.854,"R","R",1,0.651
"1",2054,19,26,1,2,"no",0.594,"L","L",1,1.077
"1",2055,19,27,2,2,"no",0.682,"L","L",1,0.875
"1",2056,19,28,1,2,"no",0.719,"L","L",1,1.092
"1",2057,19,29,1,2,"no",0.98,"L","L",1,0.81
"1",2058,19,30,2,2,"no",0.686,"L","L",1,0.567
"1",2059,19,31,1,2,"no",0.738,"L","L",1,0.622
"1",2060,19,32,1,2,"no",0.996,"L","L",1,2.803
"1",2061,19,33,1,2,"no",0.711,"R","R",1,1.785
"1",2062,19,34,2,2,"no",0.609,"L","L",1,0.74
"1",2063,19,35,2,2,"no",0.703,"L","L",1,0.927
"1",2064,19,36,1,2,"no",0.821,"R","R",1,0.807
"1",2065,19,37,1,2,"no",0.654,"R","R",1,0.822
"1",2066,19,38,2,2,"no",0.64,"R","R",1,0.823
"1",2067,19,39,2,2,"no",0.809,"L","L",1,1.008
"1",2068,19,40,2,2,"no",0.559,"L","L",1,0.908
"1",2069,19,41,2,2,"no",0.519,"L","L",1,0.909
"1",2070,19,42,1,2,"no",0.712,"L","L",1,0.926
"1",2071,19,43,2,2,"no",0.793,"R","R",1,0.615
"1",2072,19,44,1,2,"no",1,"R","R",1,1.015
"1",2073,19,45,1,2,"no",0.951,"R","R",1,0.74
"1",2074,19,46,2,2,"no",0.987,"R","R",1,0.992
"1",2075,19,47,2,2,"no",0.508,"R","R",1,0.718
"1",2076,19,48,1,2,"no",0.71,"R","R",1,1.166
"1",2077,19,49,1,2,"no",0.997,"L","L",1,1.369
"1",2078,19,50,2,2,"no",0.71,"R","R",1,0.788
"1",2079,19,51,1,2,"no",0.507,"R","R",1,0.823
"1",2080,19,52,2,2,"no",0.95,"R","R",1,0.621
"1",2081,19,53,1,2,"no",0.88,"R","R",1,0.992
"1",2082,19,54,1,2,"no",0.597,"R","R",1,0.77
"1",2083,19,55,1,2,"no",0.924,"R","R",1,0.701
"1",2084,19,56,1,2,"no",0.935,"R","R",1,0.685
"1",2085,19,57,1,2,"no",0.511,"L","L",1,0.787
"1",2086,19,58,1,2,"no",0.549,"L","L",1,1.13
"1",2087,19,59,2,2,"no",0.865,"L","L",1,1.42
"1",2088,19,60,2,2,"no",0.941,"L","L",1,1.095
"1",2089,19,61,2,2,"no",0.655,"R","R",1,0.583
"1",2090,19,62,1,2,"no",0.948,"R","R",1,0.719
"1",2091,19,63,2,2,"no",0.632,"L","L",1,1.014
"1",2092,19,64,2,2,"no",0.712,"R","R",1,0.702
"1",2093,19,65,2,2,"no",0.866,"L","L",1,0.653
"1",2094,19,66,1,2,"no",0.934,"L","R",0,0.67
"1",2095,19,67,1,2,"no",0.995,"L","L",1,1.265
"1",2096,19,68,2,2,"no",0.602,"L","L",1,0.805
"1",2097,19,69,1,2,"no",0.954,"R","R",1,0.601
"1",2098,19,70,2,2,"no",0.55,"L","L",1,0.634
"1",2099,19,71,1,2,"no",0.647,"R","R",1,0.669
"1",2100,19,72,2,2,"no",0.543,"R","R",1,0.649
"1",2101,19,73,2,2,"no",0.822,"L","L",1,0.649
"1",2102,19,74,1,2,"no",0.786,"R","R",1,0.652
"1",2103,19,75,2,2,"no",0.806,"R","R",1,0.529
"1",2104,19,76,1,2,"no",0.778,"L","L",1,1.492
"1",2105,19,77,2,2,"no",0.921,"R","R",1,0.638
"1",2106,19,78,1,2,"no",0.505,"R","R",1,1.03
"1",2107,19,79,2,2,"no",0.802,"R","R",1,1.047
"1",2108,19,80,2,2,"no",0.95,"L","L",1,1.302
"1",2109,19,81,2,2,"no",0.63,"L","R",0,1.047
"1",2110,19,82,1,2,"no",0.666,"L","R",0,1.832
"1",2111,19,83,2,2,"no",0.568,"L","L",1,1.215
"1",2112,19,84,2,2,"no",0.697,"R","R",1,0.719
"1",2113,19,85,1,2,"no",0.685,"L","L",1,0.719
"1",2114,19,86,1,2,"no",0.619,"L","L",1,2.534
"1",2115,19,87,1,2,"no",0.784,"R","R",1,0.809
"1",2116,19,89,1,2,"no",0.93,"R","R",1,0.809
"1",2117,19,90,1,2,"no",0.772,"L","L",1,0.776
"1",2118,19,91,2,2,"no",0.655,"R","R",1,1.077
"1",2119,19,92,2,2,"no",0.672,"R","R",1,0.839
"1",2120,19,93,1,2,"no",0.648,"R","R",1,1.127
"1",2121,19,94,1,2,"no",0.91,"L","L",1,1.01
"1",2122,19,95,1,2,"no",0.806,"L","L",1,1.034
"1",2123,19,96,1,2,"no",0.948,"R","L",0,1.338
"1",2124,19,97,2,2,"no",0.856,"L","L",1,1.181
"1",2125,19,98,2,2,"no",0.621,"L","L",1,1.402
"1",2126,19,99,1,2,"no",0.597,"L","L",1,0.737
"1",2127,19,100,1,2,"no",0.907,"L","L",1,2.236
"1",2128,19,101,1,2,"no",0.701,"R","L",0,1.83
"1",2129,19,102,1,2,"no",0.589,"R","R",1,1.745
"1",2130,19,103,1,2,"no",0.626,"R","R",1,0.943
"1",2131,19,104,2,2,"no",0.949,"R","R",1,1.113
"1",2132,19,105,1,2,"no",0.602,"R","R",1,0.723
"1",2133,19,106,1,2,"no",0.685,"R","R",1,1.077
"1",2134,19,107,2,2,"no",0.761,"L","R",0,1.969
"1",2135,19,108,2,2,"no",0.918,"L","L",1,0.737
"1",2136,19,109,1,2,"no",0.85,"L","L",1,1.147
"1",2137,19,110,1,2,"no",0.565,"R","R",1,0.997
"1",2138,19,111,2,2,"no",0.991,"R","L",0,1.182
"1",2139,19,112,1,2,"no",0.978,"R","R",1,0.669
"1",2140,19,113,2,2,"no",0.623,"R","R",1,0.905
"1",2141,19,114,2,2,"no",0.993,"R","R",1,0.84
"1",2142,19,115,1,2,"no",0.703,"L","L",1,0.735
"1",2143,19,116,2,2,"no",0.628,"R","R",1,0.754
"1",2144,19,117,1,2,"no",0.925,"L","L",1,0.757
"1",2145,19,118,1,2,"no",0.787,"L","L",1,0.793
"1",2146,19,119,2,2,"no",0.967,"L","L",1,0.587
"1",2147,19,120,2,2,"no",0.831,"R","R",1,0.514
"1",2148,19,121,2,2,"no",0.954,"R","R",1,0.536
"1",2149,19,122,2,2,"no",0.833,"R","R",1,0.635
"1",2150,19,123,2,2,"no",0.756,"R","R",1,0.701
"1",2151,19,124,1,2,"no",0.762,"L","L",1,0.573
"1",2152,19,125,2,2,"no",0.695,"R","R",1,0.739
"1",2153,19,126,2,2,"no",0.609,"L","L",1,0.653
"1",2154,19,127,2,2,"no",0.835,"L","R",0,0.771
"1",2155,19,128,2,2,"no",0.728,"L","L",1,0.581
"1",2156,19,129,2,2,"no",0.868,"R","R",1,0.598
"1",2157,19,130,1,2,"no",0.995,"R","L",0,0.722
"1",2158,19,131,2,2,"no",0.58,"R","R",1,0.652
